"subject","task","congurancy","block","trial","accuracy","rt"
"subj001","word_reading","congruent",1,1,1,736
"subj001","word_reading","congruent",1,2,1,634
"subj001","word_reading","congruent",1,3,1,786
"subj001","ink_naming","incongruent",1,4,1,1265
"subj001","ink_naming","incongruent",1,7,1,1142
"subj001","ink_naming","incongruent",1,8,1,1366
"subj001","word_reading","congruent",1,9,1,728
"subj001","ink_naming","congruent",1,10,1,984
"subj001","word_reading","incongruent",1,11,1,469
"subj001","ink_naming","incongruent",1,12,1,993
"subj001","ink_naming","incongruent",1,13,1,1142
"subj001","ink_naming","incongruent",1,15,1,1178
"subj001","word_reading","congruent",1,16,1,782
"subj001","word_reading","incongruent",1,17,1,701
"subj001","ink_naming","congruent",1,18,1,1121
"subj001","word_reading","congruent",1,19,1,608
"subj001","word_reading","congruent",1,20,1,579
"subj001","ink_naming","congruent",1,21,1,877
"subj001","word_reading","incongruent",1,22,1,794
"subj001","ink_naming","congruent",1,24,0,1079
"subj001","word_reading","congruent",1,26,1,641
"subj001","word_reading","incongruent",1,27,1,683
"subj001","ink_naming","incongruent",1,28,1,965
"subj001","word_reading","congruent",1,29,1,583
"subj001","ink_naming","incongruent",1,30,1,1006
"subj001","ink_naming","congruent",1,31,1,1105
"subj001","ink_naming","incongruent",1,32,1,1090
"subj001","word_reading","congruent",1,33,1,779
"subj001","word_reading","incongruent",1,34,1,872
"subj001","ink_naming","incongruent",1,35,1,1131
"subj001","word_reading","congruent",1,37,1,525
"subj001","word_reading","congruent",1,38,1,618
"subj001","ink_naming","congruent",1,39,1,1006
"subj001","word_reading","incongruent",1,40,1,750
"subj001","word_reading","congruent",1,41,0,624
"subj001","word_reading","incongruent",1,42,1,988
"subj001","ink_naming","incongruent",1,43,1,1104
"subj001","ink_naming","congruent",1,44,1,1006
"subj001","word_reading","congruent",1,45,1,765
"subj001","ink_naming","congruent",1,47,1,936
"subj001","ink_naming","incongruent",1,48,1,1255
"subj001","word_reading","congruent",1,49,1,862
"subj001","word_reading","congruent",1,50,1,697
"subj001","ink_naming","congruent",2,2,1,990
"subj001","word_reading","congruent",2,3,1,802
"subj001","ink_naming","congruent",2,4,1,884
"subj001","word_reading","incongruent",2,6,1,660
"subj001","ink_naming","incongruent",2,7,1,1004
"subj001","ink_naming","congruent",2,8,1,965
"subj001","ink_naming","incongruent",2,9,1,1165
"subj001","ink_naming","congruent",2,10,1,1162
"subj001","ink_naming","congruent",2,11,1,1091
"subj001","word_reading","incongruent",2,12,1,734
"subj001","word_reading","incongruent",2,13,1,581
"subj001","word_reading","congruent",2,14,1,613
"subj001","ink_naming","congruent",2,15,1,984
"subj001","ink_naming","incongruent",2,16,1,1405
"subj001","ink_naming","congruent",2,17,1,814
"subj001","ink_naming","congruent",2,18,1,1113
"subj001","word_reading","congruent",2,19,1,647
"subj001","ink_naming","congruent",2,20,1,1167
"subj001","ink_naming","incongruent",2,21,1,1036
"subj001","ink_naming","congruent",2,22,1,1014
"subj001","word_reading","congruent",2,23,1,590
"subj001","ink_naming","congruent",2,24,1,1090
"subj001","word_reading","congruent",2,25,1,848
"subj001","ink_naming","incongruent",2,26,1,1345
"subj001","word_reading","incongruent",2,27,1,800
"subj001","word_reading","congruent",2,28,1,884
"subj001","word_reading","incongruent",2,29,1,845
"subj001","word_reading","incongruent",2,30,1,707
"subj001","ink_naming","incongruent",2,32,1,1053
"subj001","word_reading","congruent",2,33,1,681
"subj001","word_reading","incongruent",2,34,1,842
"subj001","ink_naming","incongruent",2,35,1,1204
"subj001","ink_naming","incongruent",2,36,1,1196
"subj001","word_reading","congruent",2,37,1,596
"subj001","word_reading","congruent",2,38,1,640
"subj001","ink_naming","congruent",2,40,1,1040
"subj001","ink_naming","incongruent",2,41,1,1051
"subj001","ink_naming","incongruent",2,42,1,1206
"subj001","ink_naming","congruent",2,43,1,888
"subj001","ink_naming","incongruent",2,44,1,1333
"subj001","word_reading","incongruent",2,45,1,766
"subj001","ink_naming","congruent",2,46,1,930
"subj001","ink_naming","congruent",2,47,1,1024
"subj001","ink_naming","incongruent",2,48,1,1115
"subj001","word_reading","congruent",2,49,1,737
"subj001","word_reading","congruent",2,50,1,724
"subj001","ink_naming","congruent",3,1,1,899
"subj001","ink_naming","incongruent",3,3,1,1180
"subj001","ink_naming","congruent",3,4,1,1164
"subj001","word_reading","incongruent",3,5,1,828
"subj001","ink_naming","incongruent",3,6,1,1088
"subj001","ink_naming","congruent",3,7,1,1083
"subj001","word_reading","congruent",3,8,1,695
"subj001","word_reading","congruent",3,9,1,730
"subj001","word_reading","incongruent",3,10,1,746
"subj001","word_reading","incongruent",3,11,1,978
"subj001","ink_naming","incongruent",3,12,1,1031
"subj001","word_reading","incongruent",3,13,1,730
"subj001","word_reading","congruent",3,14,1,522
"subj001","ink_naming","congruent",3,15,1,1059
"subj001","ink_naming","incongruent",3,16,0,1260
"subj001","ink_naming","incongruent",3,17,1,1295
"subj001","word_reading","incongruent",3,18,1,527
"subj001","word_reading","congruent",3,19,1,741
"subj001","ink_naming","incongruent",3,20,1,1309
"subj001","ink_naming","congruent",3,21,1,959
"subj001","word_reading","congruent",3,23,1,696
"subj001","word_reading","congruent",3,24,1,737
"subj001","word_reading","congruent",3,25,1,767
"subj001","ink_naming","incongruent",3,26,1,1282
"subj001","ink_naming","incongruent",3,27,1,1140
"subj001","word_reading","congruent",3,28,1,720
"subj001","ink_naming","congruent",3,29,1,1249
"subj001","ink_naming","congruent",3,30,1,1043
"subj001","word_reading","incongruent",3,31,1,739
"subj001","word_reading","congruent",3,32,1,566
"subj001","ink_naming","incongruent",3,33,1,1150
"subj001","ink_naming","incongruent",3,34,1,1128
"subj001","ink_naming","incongruent",3,35,0,1149
"subj001","word_reading","incongruent",3,36,1,662
"subj001","ink_naming","incongruent",3,37,1,1081
"subj001","ink_naming","incongruent",3,38,1,1078
"subj001","word_reading","congruent",3,40,1,837
"subj001","word_reading","incongruent",3,41,1,825
"subj001","word_reading","incongruent",3,42,1,684
"subj001","ink_naming","congruent",3,44,1,916
"subj001","ink_naming","incongruent",3,45,1,1104
"subj001","ink_naming","incongruent",3,46,1,1160
"subj001","ink_naming","incongruent",3,47,1,1084
"subj001","ink_naming","incongruent",3,50,1,1029
"subj001","word_reading","congruent",4,1,1,686
"subj001","ink_naming","incongruent",4,2,1,1049
"subj001","word_reading","congruent",4,3,0,716
"subj001","word_reading","incongruent",4,4,1,743
"subj001","ink_naming","congruent",4,5,1,1036
"subj001","word_reading","congruent",4,6,0,538
"subj001","word_reading","congruent",4,7,1,722
"subj001","word_reading","congruent",4,8,1,731
"subj001","ink_naming","congruent",4,9,1,858
"subj001","word_reading","congruent",4,10,1,796
"subj001","word_reading","congruent",4,11,1,778
"subj001","ink_naming","incongruent",4,13,1,1166
"subj001","ink_naming","incongruent",4,14,1,1155
"subj001","word_reading","congruent",4,15,1,710
"subj001","word_reading","incongruent",4,16,1,727
"subj001","word_reading","congruent",4,17,1,515
"subj001","word_reading","congruent",4,18,1,533
"subj001","ink_naming","incongruent",4,19,1,1142
"subj001","ink_naming","congruent",4,20,1,942
"subj001","ink_naming","incongruent",4,21,1,1155
"subj001","word_reading","incongruent",4,22,1,509
"subj001","word_reading","incongruent",4,23,1,570
"subj001","word_reading","incongruent",4,24,1,610
"subj001","ink_naming","congruent",4,25,1,1099
"subj001","word_reading","congruent",4,26,1,590
"subj001","word_reading","congruent",4,27,1,620
"subj001","word_reading","incongruent",4,28,1,728
"subj001","word_reading","incongruent",4,29,1,688
"subj001","ink_naming","incongruent",4,30,1,1165
"subj001","word_reading","incongruent",4,31,1,951
"subj001","ink_naming","congruent",4,32,1,888
"subj001","word_reading","congruent",4,33,1,669
"subj001","ink_naming","congruent",4,34,1,948
"subj001","word_reading","congruent",4,35,1,851
"subj001","ink_naming","incongruent",4,36,1,1073
"subj001","ink_naming","incongruent",4,37,1,1142
"subj001","ink_naming","congruent",4,38,1,1079
"subj001","word_reading","congruent",4,39,1,594
"subj001","ink_naming","incongruent",4,40,1,1316
"subj001","word_reading","incongruent",4,41,1,788
"subj001","ink_naming","congruent",4,42,1,893
"subj001","word_reading","congruent",4,43,1,745
"subj001","word_reading","incongruent",4,44,1,699
"subj001","word_reading","incongruent",4,45,1,751
"subj001","word_reading","congruent",4,46,1,691
"subj001","word_reading","congruent",4,47,1,807
"subj001","word_reading","incongruent",4,48,1,585
"subj001","ink_naming","congruent",4,49,1,948
"subj001","word_reading","incongruent",4,50,1,695
"subj001","ink_naming","incongruent",5,1,1,1050
"subj001","ink_naming","incongruent",5,2,1,1046
"subj001","word_reading","incongruent",5,3,1,718
"subj001","ink_naming","congruent",5,4,1,987
"subj001","word_reading","incongruent",5,6,1,824
"subj001","ink_naming","incongruent",5,7,1,1175
"subj001","word_reading","congruent",5,8,1,942
"subj001","word_reading","incongruent",5,9,1,789
"subj001","word_reading","incongruent",5,10,1,675
"subj001","word_reading","incongruent",5,11,1,1000
"subj001","word_reading","congruent",5,12,1,983
"subj001","ink_naming","congruent",5,13,1,878
"subj001","word_reading","incongruent",5,14,1,767
"subj001","word_reading","incongruent",5,15,1,699
"subj001","ink_naming","incongruent",5,17,1,1173
"subj001","ink_naming","congruent",5,18,1,874
"subj001","ink_naming","incongruent",5,19,1,1179
"subj001","word_reading","congruent",5,20,1,875
"subj001","word_reading","incongruent",5,21,1,704
"subj001","word_reading","congruent",5,22,1,684
"subj001","ink_naming","congruent",5,23,1,1140
"subj001","word_reading","congruent",5,24,1,790
"subj001","word_reading","incongruent",5,25,1,555
"subj001","ink_naming","incongruent",5,26,1,1173
"subj001","ink_naming","congruent",5,27,1,1165
"subj001","ink_naming","congruent",5,28,1,1142
"subj001","ink_naming","incongruent",5,29,1,1192
"subj001","word_reading","congruent",5,30,1,772
"subj001","ink_naming","congruent",5,31,1,880
"subj001","ink_naming","incongruent",5,32,1,1180
"subj001","word_reading","incongruent",5,35,1,814
"subj001","word_reading","incongruent",5,36,1,606
"subj001","word_reading","incongruent",5,37,1,747
"subj001","ink_naming","incongruent",5,38,1,1193
"subj001","word_reading","incongruent",5,39,1,725
"subj001","ink_naming","congruent",5,40,1,1182
"subj001","ink_naming","congruent",5,41,1,898
"subj001","ink_naming","incongruent",5,42,1,1211
"subj001","ink_naming","congruent",5,43,1,991
"subj001","word_reading","incongruent",5,44,1,694
"subj001","word_reading","congruent",5,45,1,746
"subj001","ink_naming","congruent",5,46,1,898
"subj001","ink_naming","congruent",5,47,1,869
"subj001","word_reading","incongruent",5,48,1,671
"subj001","word_reading","incongruent",5,49,1,895
"subj001","ink_naming","incongruent",5,50,0,1156
"subj001","ink_naming","congruent",6,1,1,1033
"subj001","word_reading","incongruent",6,2,1,701
"subj001","ink_naming","incongruent",6,3,1,1197
"subj001","ink_naming","congruent",6,4,1,905
"subj001","ink_naming","congruent",6,6,1,1058
"subj001","word_reading","congruent",6,7,1,619
"subj001","word_reading","congruent",6,8,1,705
"subj001","ink_naming","incongruent",6,9,1,1222
"subj001","ink_naming","congruent",6,10,1,1056
"subj001","word_reading","incongruent",6,11,1,868
"subj001","ink_naming","incongruent",6,12,1,1089
"subj001","word_reading","incongruent",6,13,1,832
"subj001","word_reading","congruent",6,14,1,804
"subj001","ink_naming","incongruent",6,15,1,1134
"subj001","word_reading","congruent",6,16,1,602
"subj001","ink_naming","incongruent",6,17,1,1041
"subj001","word_reading","congruent",6,18,1,746
"subj001","ink_naming","congruent",6,19,0,993
"subj001","ink_naming","congruent",6,20,1,1178
"subj001","ink_naming","congruent",6,22,1,963
"subj001","ink_naming","incongruent",6,24,1,1092
"subj001","ink_naming","congruent",6,25,1,1034
"subj001","ink_naming","incongruent",6,26,1,1105
"subj001","ink_naming","congruent",6,27,1,1051
"subj001","word_reading","congruent",6,29,1,689
"subj001","ink_naming","congruent",6,30,1,927
"subj001","ink_naming","incongruent",6,32,1,1183
"subj001","word_reading","congruent",6,33,1,723
"subj001","ink_naming","congruent",6,34,1,831
"subj001","word_reading","congruent",6,35,1,766
"subj001","ink_naming","incongruent",6,36,1,1048
"subj001","word_reading","incongruent",6,37,1,385
"subj001","word_reading","incongruent",6,38,1,1702
"subj001","ink_naming","congruent",6,39,1,955
"subj001","word_reading","incongruent",6,40,1,545
"subj001","ink_naming","congruent",6,41,1,347
"subj001","ink_naming","congruent",6,42,1,762
"subj001","ink_naming","congruent",6,43,1,1057
"subj001","ink_naming","congruent",6,44,1,1102
"subj001","word_reading","congruent",6,45,1,637
"subj001","ink_naming","incongruent",6,46,1,1194
"subj001","ink_naming","incongruent",6,48,1,1254
"subj001","word_reading","congruent",6,49,1,748
"subj001","ink_naming","congruent",6,50,1,976
"subj001","ink_naming","incongruent",7,1,1,1242
"subj001","ink_naming","incongruent",7,2,1,332
"subj001","ink_naming","congruent",7,3,1,906
"subj001","ink_naming","incongruent",7,4,1,1010
"subj001","ink_naming","congruent",7,5,1,1016
"subj001","ink_naming","congruent",7,6,1,973
"subj001","ink_naming","incongruent",7,7,1,1051
"subj001","word_reading","congruent",7,8,1,708
"subj001","ink_naming","congruent",7,9,0,868
"subj001","word_reading","congruent",7,10,1,716
"subj001","ink_naming","congruent",7,12,1,1096
"subj001","ink_naming","incongruent",7,13,1,1392
"subj001","ink_naming","congruent",7,14,1,908
"subj001","word_reading","incongruent",7,15,1,826
"subj001","ink_naming","incongruent",7,17,1,1143
"subj001","ink_naming","incongruent",7,18,1,1105
"subj001","word_reading","congruent",7,19,1,858
"subj001","ink_naming","congruent",7,20,1,799
"subj001","ink_naming","congruent",7,21,1,936
"subj001","word_reading","incongruent",7,22,1,576
"subj001","ink_naming","congruent",7,23,1,1140
"subj001","ink_naming","congruent",7,24,1,981
"subj001","word_reading","incongruent",7,25,1,668
"subj001","word_reading","congruent",7,26,1,1018
"subj001","ink_naming","congruent",7,27,1,995
"subj001","ink_naming","incongruent",7,28,1,1106
"subj001","ink_naming","congruent",7,29,1,1030
"subj001","ink_naming","incongruent",7,30,1,993
"subj001","word_reading","incongruent",7,31,1,769
"subj001","ink_naming","incongruent",7,32,1,1140
"subj001","ink_naming","congruent",7,33,1,1047
"subj001","ink_naming","congruent",7,34,1,902
"subj001","ink_naming","congruent",7,35,1,898
"subj001","ink_naming","congruent",7,36,1,931
"subj001","word_reading","incongruent",7,37,1,643
"subj001","word_reading","congruent",7,38,1,830
"subj001","ink_naming","congruent",7,39,1,1158
"subj001","ink_naming","congruent",7,40,1,984
"subj001","ink_naming","congruent",7,41,1,964
"subj001","ink_naming","incongruent",7,43,1,1157
"subj001","word_reading","congruent",7,44,0,710
"subj001","ink_naming","incongruent",7,45,1,1179
"subj001","word_reading","congruent",7,46,1,625
"subj001","ink_naming","congruent",7,47,1,915
"subj001","ink_naming","congruent",7,48,1,1120
"subj001","word_reading","incongruent",7,49,1,665
"subj001","ink_naming","congruent",7,50,1,1030
"subj001","ink_naming","congruent",8,1,1,994
"subj001","ink_naming","congruent",8,2,1,904
"subj001","word_reading","incongruent",8,3,1,779
"subj001","word_reading","congruent",8,4,1,717
"subj001","ink_naming","congruent",8,5,1,1140
"subj001","word_reading","incongruent",8,6,1,732
"subj001","word_reading","congruent",8,8,1,728
"subj001","word_reading","congruent",8,9,1,581
"subj001","word_reading","incongruent",8,10,1,636
"subj001","ink_naming","incongruent",8,11,1,1201
"subj001","ink_naming","congruent",8,12,1,967
"subj001","ink_naming","congruent",8,13,1,993
"subj001","ink_naming","congruent",8,14,1,988
"subj001","ink_naming","incongruent",8,15,1,1085
"subj001","ink_naming","congruent",8,16,1,798
"subj001","ink_naming","incongruent",8,17,1,303
"subj001","ink_naming","congruent",8,18,1,1076
"subj001","ink_naming","congruent",8,20,0,1148
"subj001","word_reading","congruent",8,21,1,739
"subj001","word_reading","congruent",8,22,1,834
"subj001","ink_naming","incongruent",8,23,1,1054
"subj001","ink_naming","incongruent",8,24,1,1167
"subj001","ink_naming","congruent",8,25,1,990
"subj001","word_reading","congruent",8,26,1,777
"subj001","word_reading","incongruent",8,27,1,662
"subj001","ink_naming","congruent",8,28,1,999
"subj001","ink_naming","congruent",8,29,1,822
"subj001","ink_naming","incongruent",8,30,1,1072
"subj001","ink_naming","congruent",8,31,1,1013
"subj001","ink_naming","incongruent",8,32,1,1079
"subj001","ink_naming","incongruent",8,33,1,1146
"subj001","ink_naming","incongruent",8,34,1,1103
"subj001","ink_naming","incongruent",8,35,1,1211
"subj001","word_reading","incongruent",8,37,1,638
"subj001","word_reading","incongruent",8,38,1,689
"subj001","word_reading","incongruent",8,39,1,864
"subj001","word_reading","congruent",8,40,1,480
"subj001","word_reading","incongruent",8,41,1,688
"subj001","word_reading","congruent",8,42,1,906
"subj001","word_reading","congruent",8,43,1,919
"subj001","word_reading","congruent",8,44,1,716
"subj001","word_reading","congruent",8,46,1,717
"subj001","word_reading","congruent",8,47,1,635
"subj001","word_reading","congruent",8,48,1,845
"subj001","word_reading","incongruent",8,49,1,639
"subj001","ink_naming","incongruent",8,50,1,1187
"subj002","word_reading","incongruent",1,1,1,622
"subj002","word_reading","incongruent",1,2,1,828
"subj002","word_reading","incongruent",1,4,1,433
"subj002","word_reading","incongruent",1,5,1,714
"subj002","ink_naming","incongruent",1,6,1,1204
"subj002","word_reading","incongruent",1,7,1,886
"subj002","word_reading","congruent",1,8,1,560
"subj002","word_reading","incongruent",1,9,1,699
"subj002","ink_naming","congruent",1,10,1,791
"subj002","word_reading","congruent",1,11,1,749
"subj002","ink_naming","congruent",1,12,1,1121
"subj002","word_reading","congruent",1,13,0,710
"subj002","word_reading","congruent",1,14,1,771
"subj002","ink_naming","incongruent",1,15,1,1058
"subj002","ink_naming","congruent",1,16,1,1110
"subj002","word_reading","congruent",1,17,1,696
"subj002","ink_naming","congruent",1,18,1,1020
"subj002","word_reading","congruent",1,19,1,707
"subj002","ink_naming","congruent",1,20,1,1047
"subj002","ink_naming","congruent",1,21,1,1048
"subj002","ink_naming","incongruent",1,22,1,1234
"subj002","ink_naming","congruent",1,23,1,1081
"subj002","ink_naming","incongruent",1,24,1,1306
"subj002","ink_naming","incongruent",1,25,1,1223
"subj002","word_reading","congruent",1,26,1,369
"subj002","ink_naming","incongruent",1,27,1,959
"subj002","word_reading","congruent",1,29,1,548
"subj002","ink_naming","incongruent",1,30,1,1256
"subj002","word_reading","congruent",1,31,1,594
"subj002","ink_naming","incongruent",1,32,1,1100
"subj002","word_reading","congruent",1,33,1,795
"subj002","ink_naming","congruent",1,34,1,905
"subj002","word_reading","congruent",1,35,1,757
"subj002","word_reading","incongruent",1,36,1,597
"subj002","word_reading","congruent",1,37,1,560
"subj002","ink_naming","congruent",1,38,1,1069
"subj002","ink_naming","incongruent",1,40,1,1159
"subj002","word_reading","congruent",1,41,1,612
"subj002","word_reading","congruent",1,42,1,735
"subj002","ink_naming","incongruent",1,43,1,1263
"subj002","word_reading","incongruent",1,44,1,704
"subj002","ink_naming","incongruent",1,45,1,383
"subj002","word_reading","congruent",1,46,1,785
"subj002","word_reading","incongruent",1,47,1,718
"subj002","word_reading","incongruent",1,48,1,742
"subj002","ink_naming","incongruent",1,49,1,1108
"subj002","ink_naming","congruent",1,50,1,933
"subj002","word_reading","congruent",2,1,1,672
"subj002","ink_naming","congruent",2,2,1,789
"subj002","word_reading","incongruent",2,3,1,742
"subj002","ink_naming","incongruent",2,5,1,1203
"subj002","word_reading","incongruent",2,6,1,866
"subj002","ink_naming","incongruent",2,7,1,1149
"subj002","ink_naming","congruent",2,8,1,804
"subj002","word_reading","incongruent",2,9,1,669
"subj002","word_reading","incongruent",2,10,1,663
"subj002","word_reading","incongruent",2,11,1,817
"subj002","ink_naming","congruent",2,12,1,1062
"subj002","word_reading","incongruent",2,13,1,889
"subj002","ink_naming","congruent",2,14,1,971
"subj002","word_reading","incongruent",2,15,1,802
"subj002","word_reading","incongruent",2,17,1,663
"subj002","ink_naming","incongruent",2,18,1,1191
"subj002","word_reading","incongruent",2,19,1,636
"subj002","word_reading","congruent",2,21,1,2874
"subj002","word_reading","incongruent",2,22,1,706
"subj002","ink_naming","congruent",2,23,1,927
"subj002","word_reading","congruent",2,24,1,599
"subj002","word_reading","congruent",2,25,1,452
"subj002","ink_naming","congruent",2,27,1,965
"subj002","word_reading","congruent",2,28,1,639
"subj002","word_reading","congruent",2,29,1,800
"subj002","ink_naming","congruent",2,31,1,997
"subj002","ink_naming","congruent",2,32,1,1019
"subj002","ink_naming","incongruent",2,33,1,1236
"subj002","ink_naming","congruent",2,34,1,1162
"subj002","word_reading","congruent",2,35,1,724
"subj002","word_reading","congruent",2,36,1,693
"subj002","ink_naming","incongruent",2,37,1,1160
"subj002","ink_naming","congruent",2,38,1,1018
"subj002","ink_naming","incongruent",2,39,1,1186
"subj002","ink_naming","incongruent",2,40,1,1079
"subj002","ink_naming","incongruent",2,41,1,1124
"subj002","word_reading","incongruent",2,42,1,548
"subj002","ink_naming","incongruent",2,43,1,1129
"subj002","word_reading","congruent",2,44,1,649
"subj002","ink_naming","incongruent",2,46,1,1145
"subj002","ink_naming","congruent",2,47,1,905
"subj002","ink_naming","incongruent",2,48,1,1097
"subj002","word_reading","congruent",2,49,1,666
"subj002","word_reading","congruent",3,1,1,799
"subj002","word_reading","incongruent",3,2,1,744
"subj002","word_reading","congruent",3,3,1,745
"subj002","ink_naming","incongruent",3,4,1,993
"subj002","word_reading","congruent",3,5,0,577
"subj002","word_reading","congruent",3,6,1,645
"subj002","ink_naming","incongruent",3,7,1,1276
"subj002","word_reading","congruent",3,8,1,663
"subj002","ink_naming","congruent",3,9,1,1115
"subj002","word_reading","congruent",3,11,1,682
"subj002","word_reading","congruent",3,12,1,630
"subj002","ink_naming","congruent",3,14,1,1060
"subj002","ink_naming","incongruent",3,15,1,1148
"subj002","word_reading","incongruent",3,16,1,735
"subj002","ink_naming","congruent",3,17,1,938
"subj002","word_reading","incongruent",3,18,1,907
"subj002","ink_naming","incongruent",3,19,1,1209
"subj002","word_reading","congruent",3,20,1,791
"subj002","ink_naming","congruent",3,21,1,900
"subj002","word_reading","congruent",3,22,1,545
"subj002","word_reading","incongruent",3,23,1,917
"subj002","ink_naming","congruent",3,24,1,1007
"subj002","word_reading","incongruent",3,25,0,665
"subj002","ink_naming","incongruent",3,26,1,1143
"subj002","word_reading","incongruent",3,29,1,791
"subj002","ink_naming","incongruent",3,30,1,1379
"subj002","word_reading","incongruent",3,31,1,585
"subj002","ink_naming","incongruent",3,32,1,1116
"subj002","ink_naming","congruent",3,33,0,1049
"subj002","word_reading","incongruent",3,34,1,886
"subj002","word_reading","incongruent",3,35,1,618
"subj002","word_reading","congruent",3,36,1,702
"subj002","ink_naming","congruent",3,37,1,961
"subj002","word_reading","congruent",3,38,1,543
"subj002","word_reading","incongruent",3,39,1,613
"subj002","word_reading","congruent",3,40,1,583
"subj002","ink_naming","incongruent",3,41,1,971
"subj002","word_reading","congruent",3,42,1,724
"subj002","word_reading","congruent",3,43,1,716
"subj002","ink_naming","incongruent",3,44,1,1223
"subj002","ink_naming","incongruent",3,45,1,1276
"subj002","word_reading","congruent",3,46,1,506
"subj002","word_reading","incongruent",3,47,0,678
"subj002","word_reading","incongruent",3,48,1,609
"subj002","ink_naming","congruent",3,49,1,1016
"subj002","word_reading","incongruent",3,50,1,818
"subj002","word_reading","incongruent",4,1,1,758
"subj002","ink_naming","congruent",4,2,1,992
"subj002","ink_naming","incongruent",4,4,0,1155
"subj002","word_reading","incongruent",4,5,1,805
"subj002","ink_naming","congruent",4,6,1,1091
"subj002","word_reading","congruent",4,7,0,739
"subj002","ink_naming","congruent",4,8,1,1112
"subj002","ink_naming","congruent",4,9,1,1005
"subj002","word_reading","incongruent",4,12,1,747
"subj002","word_reading","incongruent",4,13,1,539
"subj002","ink_naming","incongruent",4,14,1,1197
"subj002","ink_naming","congruent",4,15,1,763
"subj002","word_reading","incongruent",4,16,1,691
"subj002","ink_naming","congruent",4,17,1,1008
"subj002","word_reading","congruent",4,18,1,751
"subj002","word_reading","congruent",4,19,1,641
"subj002","ink_naming","incongruent",4,20,1,1094
"subj002","ink_naming","congruent",4,21,1,1005
"subj002","ink_naming","incongruent",4,23,1,1198
"subj002","word_reading","incongruent",4,24,1,774
"subj002","word_reading","incongruent",4,25,1,597
"subj002","ink_naming","congruent",4,27,1,1124
"subj002","word_reading","incongruent",4,28,1,669
"subj002","word_reading","congruent",4,29,1,637
"subj002","word_reading","incongruent",4,30,1,817
"subj002","word_reading","congruent",4,31,1,576
"subj002","ink_naming","incongruent",4,32,1,1110
"subj002","word_reading","incongruent",4,33,1,654
"subj002","word_reading","incongruent",4,34,1,570
"subj002","ink_naming","incongruent",4,35,1,1124
"subj002","ink_naming","congruent",4,36,1,1021
"subj002","ink_naming","congruent",4,37,1,933
"subj002","ink_naming","congruent",4,38,1,990
"subj002","word_reading","incongruent",4,39,1,764
"subj002","ink_naming","incongruent",4,40,1,1171
"subj002","word_reading","incongruent",4,41,1,665
"subj002","word_reading","congruent",4,42,1,618
"subj002","word_reading","congruent",4,43,1,739
"subj002","word_reading","congruent",4,44,1,794
"subj002","ink_naming","congruent",4,45,1,982
"subj002","ink_naming","congruent",4,46,1,896
"subj002","word_reading","congruent",4,47,1,466
"subj002","word_reading","incongruent",4,48,1,612
"subj002","word_reading","congruent",4,49,1,631
"subj002","ink_naming","congruent",4,50,1,1121
"subj002","ink_naming","incongruent",5,1,1,1168
"subj002","ink_naming","incongruent",5,2,1,1182
"subj002","ink_naming","congruent",5,3,1,1005
"subj002","word_reading","incongruent",5,4,1,643
"subj002","ink_naming","congruent",5,5,1,1050
"subj002","ink_naming","incongruent",5,6,1,1065
"subj002","word_reading","congruent",5,7,1,767
"subj002","word_reading","congruent",5,8,1,606
"subj002","ink_naming","congruent",5,9,1,1078
"subj002","word_reading","congruent",5,10,1,856
"subj002","word_reading","incongruent",5,11,1,598
"subj002","ink_naming","congruent",5,12,1,893
"subj002","ink_naming","incongruent",5,13,1,1243
"subj002","word_reading","incongruent",5,16,1,624
"subj002","word_reading","incongruent",5,17,1,769
"subj002","word_reading","congruent",5,18,1,834
"subj002","ink_naming","incongruent",5,19,1,1093
"subj002","word_reading","incongruent",5,20,1,732
"subj002","ink_naming","incongruent",5,21,1,1109
"subj002","word_reading","incongruent",5,22,1,799
"subj002","ink_naming","congruent",5,23,1,1007
"subj002","word_reading","incongruent",5,24,1,805
"subj002","word_reading","congruent",5,25,1,701
"subj002","ink_naming","incongruent",5,26,1,1173
"subj002","ink_naming","incongruent",5,27,1,1240
"subj002","ink_naming","incongruent",5,28,1,1078
"subj002","word_reading","incongruent",5,29,1,786
"subj002","ink_naming","incongruent",5,30,1,980
"subj002","word_reading","congruent",5,31,1,752
"subj002","word_reading","congruent",5,32,1,782
"subj002","word_reading","congruent",5,34,1,757
"subj002","ink_naming","congruent",5,35,1,1822
"subj002","word_reading","incongruent",5,36,1,584
"subj002","word_reading","congruent",5,37,1,715
"subj002","ink_naming","congruent",5,38,1,1068
"subj002","ink_naming","congruent",5,39,1,1070
"subj002","word_reading","congruent",5,40,1,671
"subj002","word_reading","incongruent",5,41,1,668
"subj002","ink_naming","incongruent",5,42,1,1083
"subj002","word_reading","congruent",5,43,1,564
"subj002","ink_naming","incongruent",5,44,1,1130
"subj002","word_reading","incongruent",5,46,0,950
"subj002","word_reading","congruent",5,47,1,624
"subj002","ink_naming","congruent",5,48,1,860
"subj002","ink_naming","congruent",5,49,1,1223
"subj002","word_reading","congruent",6,1,1,694
"subj002","ink_naming","congruent",6,3,1,1068
"subj002","word_reading","congruent",6,4,1,719
"subj002","word_reading","incongruent",6,5,1,840
"subj002","ink_naming","incongruent",6,6,1,1143
"subj002","word_reading","congruent",6,7,1,745
"subj002","word_reading","congruent",6,8,1,834
"subj002","ink_naming","incongruent",6,9,1,1000
"subj002","ink_naming","congruent",6,10,1,831
"subj002","ink_naming","incongruent",6,12,1,1249
"subj002","ink_naming","incongruent",6,13,1,1181
"subj002","word_reading","congruent",6,14,1,676
"subj002","ink_naming","congruent",6,15,1,1071
"subj002","ink_naming","incongruent",6,16,1,984
"subj002","ink_naming","incongruent",6,17,1,1108
"subj002","word_reading","incongruent",6,18,1,629
"subj002","ink_naming","congruent",6,20,1,889
"subj002","word_reading","congruent",6,21,1,619
"subj002","ink_naming","congruent",6,22,1,893
"subj002","ink_naming","incongruent",6,23,1,973
"subj002","word_reading","congruent",6,24,1,708
"subj002","ink_naming","incongruent",6,25,1,1237
"subj002","ink_naming","incongruent",6,26,1,1135
"subj002","ink_naming","congruent",6,27,1,1216
"subj002","ink_naming","congruent",6,28,1,821
"subj002","ink_naming","congruent",6,30,1,984
"subj002","ink_naming","incongruent",6,31,1,1302
"subj002","ink_naming","congruent",6,32,1,1013
"subj002","ink_naming","incongruent",6,33,1,1049
"subj002","word_reading","incongruent",6,34,1,750
"subj002","ink_naming","incongruent",6,35,1,1137
"subj002","word_reading","incongruent",6,36,1,744
"subj002","ink_naming","congruent",6,37,1,860
"subj002","ink_naming","congruent",6,38,1,336
"subj002","word_reading","congruent",6,39,1,876
"subj002","ink_naming","congruent",6,40,1,973
"subj002","word_reading","congruent",6,41,1,810
"subj002","word_reading","incongruent",6,42,1,860
"subj002","word_reading","congruent",6,43,1,795
"subj002","ink_naming","congruent",6,44,1,929
"subj002","word_reading","incongruent",6,46,1,816
"subj002","word_reading","congruent",6,47,1,669
"subj002","word_reading","congruent",6,48,1,693
"subj002","ink_naming","congruent",6,50,1,1003
"subj002","ink_naming","congruent",7,1,1,876
"subj002","word_reading","incongruent",7,2,1,727
"subj002","word_reading","incongruent",7,3,1,687
"subj002","ink_naming","incongruent",7,4,1,1200
"subj002","ink_naming","incongruent",7,5,1,957
"subj002","word_reading","congruent",7,6,1,574
"subj002","ink_naming","incongruent",7,7,1,1152
"subj002","word_reading","congruent",7,8,1,686
"subj002","word_reading","congruent",7,9,1,678
"subj002","word_reading","congruent",7,11,1,672
"subj002","ink_naming","incongruent",7,12,1,1121
"subj002","ink_naming","congruent",7,13,1,900
"subj002","ink_naming","incongruent",7,14,1,1091
"subj002","ink_naming","incongruent",7,15,1,1263
"subj002","word_reading","incongruent",7,16,1,902
"subj002","ink_naming","incongruent",7,17,1,1311
"subj002","word_reading","congruent",7,18,1,632
"subj002","ink_naming","incongruent",7,19,1,1260
"subj002","word_reading","incongruent",7,20,1,586
"subj002","ink_naming","congruent",7,21,1,916
"subj002","word_reading","congruent",7,22,1,731
"subj002","ink_naming","incongruent",7,23,1,1344
"subj002","ink_naming","incongruent",7,24,1,1157
"subj002","word_reading","incongruent",7,25,1,824
"subj002","word_reading","incongruent",7,26,1,713
"subj002","ink_naming","congruent",7,27,1,1001
"subj002","word_reading","incongruent",7,28,1,762
"subj002","word_reading","congruent",7,29,1,862
"subj002","word_reading","congruent",7,30,1,622
"subj002","word_reading","congruent",7,31,1,675
"subj002","word_reading","incongruent",7,32,1,752
"subj002","word_reading","congruent",7,33,1,707
"subj002","word_reading","incongruent",7,34,1,597
"subj002","ink_naming","congruent",7,35,1,988
"subj002","word_reading","incongruent",7,36,1,789
"subj002","word_reading","incongruent",7,37,1,702
"subj002","ink_naming","congruent",7,38,1,1009
"subj002","ink_naming","congruent",7,39,1,867
"subj002","word_reading","incongruent",7,41,1,640
"subj002","ink_naming","congruent",7,42,1,1030
"subj002","word_reading","congruent",7,43,1,659
"subj002","word_reading","incongruent",7,44,1,667
"subj002","ink_naming","incongruent",7,45,1,1238
"subj002","ink_naming","incongruent",7,46,1,1149
"subj002","word_reading","congruent",7,47,1,2180
"subj002","ink_naming","incongruent",7,48,1,952
"subj002","ink_naming","incongruent",7,49,1,1257
"subj002","ink_naming","incongruent",7,50,1,1171
"subj002","word_reading","incongruent",8,1,1,597
"subj002","word_reading","congruent",8,2,1,720
"subj002","ink_naming","incongruent",8,3,1,1172
"subj002","word_reading","congruent",8,4,1,679
"subj002","word_reading","congruent",8,5,1,703
"subj002","word_reading","incongruent",8,6,1,844
"subj002","word_reading","congruent",8,7,1,739
"subj002","word_reading","congruent",8,8,1,593
"subj002","word_reading","congruent",8,9,0,618
"subj002","word_reading","congruent",8,10,1,480
"subj002","word_reading","incongruent",8,11,1,780
"subj002","word_reading","incongruent",8,12,1,687
"subj002","word_reading","congruent",8,13,1,734
"subj002","ink_naming","congruent",8,14,1,1023
"subj002","ink_naming","incongruent",8,15,1,1085
"subj002","ink_naming","incongruent",8,16,1,1140
"subj002","word_reading","incongruent",8,17,1,815
"subj002","ink_naming","congruent",8,18,1,955
"subj002","ink_naming","congruent",8,19,1,1031
"subj002","ink_naming","incongruent",8,20,1,1155
"subj002","ink_naming","congruent",8,21,1,784
"subj002","ink_naming","congruent",8,22,1,864
"subj002","word_reading","incongruent",8,23,1,618
"subj002","word_reading","congruent",8,24,1,809
"subj002","word_reading","incongruent",8,25,1,639
"subj002","ink_naming","congruent",8,26,1,951
"subj002","ink_naming","congruent",8,27,1,1082
"subj002","word_reading","incongruent",8,28,1,766
"subj002","word_reading","congruent",8,29,1,630
"subj002","ink_naming","incongruent",8,30,1,903
"subj002","word_reading","congruent",8,31,1,782
"subj002","ink_naming","incongruent",8,33,1,1230
"subj002","word_reading","incongruent",8,34,1,730
"subj002","word_reading","incongruent",8,35,1,738
"subj002","word_reading","incongruent",8,36,1,724
"subj002","ink_naming","congruent",8,37,1,1079
"subj002","word_reading","incongruent",8,38,1,955
"subj002","word_reading","congruent",8,39,1,737
"subj002","word_reading","congruent",8,41,1,801
"subj002","word_reading","congruent",8,42,1,682
"subj002","ink_naming","incongruent",8,43,1,1072
"subj002","ink_naming","congruent",8,44,1,1014
"subj002","word_reading","incongruent",8,45,1,852
"subj002","word_reading","incongruent",8,46,1,685
"subj002","word_reading","congruent",8,47,1,697
"subj002","word_reading","congruent",8,48,1,643
"subj002","word_reading","congruent",8,49,1,657
"subj002","word_reading","incongruent",8,50,1,642
"subj003","word_reading","congruent",1,1,1,746
"subj003","word_reading","congruent",1,2,1,596
"subj003","word_reading","incongruent",1,3,1,753
"subj003","word_reading","congruent",1,4,1,822
"subj003","word_reading","incongruent",1,5,1,610
"subj003","ink_naming","congruent",1,6,1,1111
"subj003","ink_naming","incongruent",1,7,1,996
"subj003","word_reading","congruent",1,8,1,680
"subj003","ink_naming","congruent",1,9,1,1134
"subj003","ink_naming","incongruent",1,10,1,1154
"subj003","word_reading","congruent",1,11,1,768
"subj003","word_reading","incongruent",1,12,1,708
"subj003","ink_naming","incongruent",1,13,1,1071
"subj003","word_reading","incongruent",1,14,1,852
"subj003","ink_naming","incongruent",1,15,1,1185
"subj003","word_reading","congruent",1,16,1,651
"subj003","word_reading","congruent",1,17,1,574
"subj003","word_reading","incongruent",1,18,1,751
"subj003","ink_naming","congruent",1,19,1,961
"subj003","ink_naming","incongruent",1,20,1,1222
"subj003","ink_naming","incongruent",1,21,1,1250
"subj003","ink_naming","incongruent",1,22,1,1335
"subj003","ink_naming","incongruent",1,23,1,1151
"subj003","ink_naming","incongruent",1,24,1,1166
"subj003","ink_naming","congruent",1,25,0,960
"subj003","word_reading","incongruent",1,26,1,649
"subj003","word_reading","incongruent",1,27,1,484
"subj003","word_reading","incongruent",1,28,1,600
"subj003","word_reading","congruent",1,29,1,764
"subj003","word_reading","incongruent",1,30,1,885
"subj003","word_reading","congruent",1,31,1,561
"subj003","ink_naming","incongruent",1,32,1,1225
"subj003","word_reading","congruent",1,33,1,657
"subj003","word_reading","congruent",1,34,1,779
"subj003","ink_naming","incongruent",1,35,1,1324
"subj003","ink_naming","incongruent",1,36,1,1054
"subj003","word_reading","incongruent",1,37,1,512
"subj003","ink_naming","incongruent",1,38,1,1120
"subj003","ink_naming","incongruent",1,39,1,1219
"subj003","ink_naming","incongruent",1,40,1,1245
"subj003","ink_naming","incongruent",1,41,1,1199
"subj003","word_reading","incongruent",1,42,1,707
"subj003","ink_naming","congruent",1,43,1,1307
"subj003","word_reading","congruent",1,44,1,796
"subj003","ink_naming","incongruent",1,45,1,1112
"subj003","word_reading","congruent",1,46,1,718
"subj003","word_reading","incongruent",1,47,1,801
"subj003","ink_naming","incongruent",1,48,1,1196
"subj003","ink_naming","congruent",1,49,1,998
"subj003","word_reading","congruent",1,50,1,719
"subj003","word_reading","incongruent",2,1,1,768
"subj003","word_reading","congruent",2,2,1,641
"subj003","word_reading","congruent",2,3,1,675
"subj003","word_reading","incongruent",2,4,1,800
"subj003","ink_naming","congruent",2,5,1,958
"subj003","word_reading","incongruent",2,6,1,783
"subj003","word_reading","congruent",2,7,1,589
"subj003","word_reading","incongruent",2,8,1,811
"subj003","ink_naming","incongruent",2,9,1,1277
"subj003","ink_naming","incongruent",2,10,1,1104
"subj003","ink_naming","incongruent",2,11,1,992
"subj003","word_reading","congruent",2,12,1,730
"subj003","word_reading","congruent",2,13,1,724
"subj003","word_reading","congruent",2,14,1,544
"subj003","ink_naming","incongruent",2,15,1,1210
"subj003","word_reading","congruent",2,16,1,497
"subj003","word_reading","congruent",2,17,1,623
"subj003","word_reading","congruent",2,18,1,865
"subj003","word_reading","incongruent",2,19,1,798
"subj003","ink_naming","incongruent",2,20,1,1161
"subj003","ink_naming","congruent",2,21,1,716
"subj003","ink_naming","congruent",2,22,1,1008
"subj003","word_reading","incongruent",2,23,1,613
"subj003","word_reading","incongruent",2,24,1,724
"subj003","ink_naming","congruent",2,25,1,1013
"subj003","ink_naming","incongruent",2,26,1,1196
"subj003","ink_naming","incongruent",2,27,0,1120
"subj003","ink_naming","congruent",2,28,1,985
"subj003","word_reading","congruent",2,29,1,651
"subj003","ink_naming","incongruent",2,30,1,1163
"subj003","word_reading","incongruent",2,31,1,655
"subj003","ink_naming","incongruent",2,32,1,1211
"subj003","word_reading","incongruent",2,33,0,624
"subj003","word_reading","congruent",2,34,1,569
"subj003","word_reading","incongruent",2,35,1,711
"subj003","ink_naming","congruent",2,36,1,954
"subj003","ink_naming","congruent",2,37,1,1045
"subj003","word_reading","congruent",2,38,1,547
"subj003","ink_naming","incongruent",2,39,1,1176
"subj003","word_reading","incongruent",2,40,1,818
"subj003","ink_naming","congruent",2,41,1,911
"subj003","ink_naming","congruent",2,42,1,1078
"subj003","ink_naming","incongruent",2,43,1,1233
"subj003","ink_naming","congruent",2,44,1,1059
"subj003","word_reading","congruent",2,45,1,590
"subj003","ink_naming","incongruent",2,46,1,1119
"subj003","word_reading","congruent",2,47,1,732
"subj003","word_reading","incongruent",2,48,1,576
"subj003","ink_naming","congruent",2,49,1,915
"subj003","ink_naming","congruent",2,50,0,1048
"subj003","ink_naming","congruent",3,1,1,1107
"subj003","ink_naming","incongruent",3,2,1,1183
"subj003","ink_naming","congruent",3,3,1,950
"subj003","ink_naming","congruent",3,4,1,937
"subj003","ink_naming","congruent",3,5,1,1193
"subj003","ink_naming","congruent",3,6,1,966
"subj003","ink_naming","congruent",3,7,1,1069
"subj003","word_reading","congruent",3,9,1,599
"subj003","ink_naming","incongruent",3,10,1,1110
"subj003","ink_naming","congruent",3,11,1,1036
"subj003","ink_naming","congruent",3,12,1,1086
"subj003","word_reading","congruent",3,13,1,701
"subj003","word_reading","incongruent",3,14,1,767
"subj003","word_reading","congruent",3,15,1,690
"subj003","word_reading","incongruent",3,16,1,754
"subj003","word_reading","congruent",3,17,1,556
"subj003","ink_naming","incongruent",3,18,1,1156
"subj003","ink_naming","incongruent",3,19,1,1129
"subj003","word_reading","congruent",3,20,1,682
"subj003","ink_naming","incongruent",3,21,1,1088
"subj003","word_reading","incongruent",3,22,1,893
"subj003","ink_naming","incongruent",3,23,1,1066
"subj003","word_reading","incongruent",3,24,1,692
"subj003","word_reading","incongruent",3,25,1,636
"subj003","word_reading","congruent",3,26,1,673
"subj003","ink_naming","congruent",3,27,1,1047
"subj003","word_reading","congruent",3,28,1,477
"subj003","ink_naming","incongruent",3,29,1,1132
"subj003","word_reading","congruent",3,30,1,671
"subj003","word_reading","incongruent",3,31,1,606
"subj003","ink_naming","congruent",3,32,1,984
"subj003","word_reading","incongruent",3,33,1,747
"subj003","word_reading","congruent",3,34,1,726
"subj003","word_reading","congruent",3,35,1,650
"subj003","word_reading","incongruent",3,36,1,951
"subj003","ink_naming","congruent",3,38,1,840
"subj003","word_reading","congruent",3,39,1,645
"subj003","ink_naming","incongruent",3,40,1,1246
"subj003","word_reading","congruent",3,42,0,693
"subj003","ink_naming","incongruent",3,43,1,1110
"subj003","word_reading","congruent",3,44,1,631
"subj003","ink_naming","congruent",3,45,1,1132
"subj003","word_reading","incongruent",3,46,1,535
"subj003","ink_naming","congruent",3,47,1,998
"subj003","ink_naming","congruent",3,48,1,983
"subj003","word_reading","incongruent",3,49,1,863
"subj003","word_reading","incongruent",3,50,1,714
"subj003","word_reading","congruent",4,1,1,803
"subj003","word_reading","congruent",4,2,1,724
"subj003","word_reading","incongruent",4,3,1,636
"subj003","word_reading","incongruent",4,4,1,758
"subj003","ink_naming","congruent",4,5,1,890
"subj003","word_reading","incongruent",4,6,1,601
"subj003","ink_naming","congruent",4,7,1,1121
"subj003","word_reading","incongruent",4,8,1,741
"subj003","ink_naming","congruent",4,9,1,842
"subj003","ink_naming","incongruent",4,10,1,1089
"subj003","word_reading","incongruent",4,11,1,781
"subj003","word_reading","incongruent",4,13,1,676
"subj003","ink_naming","congruent",4,14,1,905
"subj003","word_reading","incongruent",4,15,1,693
"subj003","ink_naming","congruent",4,16,1,1091
"subj003","ink_naming","congruent",4,17,1,943
"subj003","ink_naming","incongruent",4,18,1,1246
"subj003","word_reading","incongruent",4,19,1,785
"subj003","ink_naming","congruent",4,20,1,974
"subj003","ink_naming","congruent",4,21,1,818
"subj003","word_reading","congruent",4,22,1,617
"subj003","ink_naming","incongruent",4,23,1,1215
"subj003","word_reading","incongruent",4,24,1,902
"subj003","word_reading","incongruent",4,25,1,803
"subj003","word_reading","incongruent",4,26,1,621
"subj003","ink_naming","incongruent",4,27,1,1174
"subj003","word_reading","incongruent",4,28,1,681
"subj003","word_reading","congruent",4,29,1,644
"subj003","ink_naming","congruent",4,30,1,890
"subj003","ink_naming","congruent",4,31,1,923
"subj003","ink_naming","congruent",4,32,1,1084
"subj003","word_reading","congruent",4,33,1,888
"subj003","word_reading","congruent",4,34,1,764
"subj003","word_reading","incongruent",4,35,1,603
"subj003","ink_naming","incongruent",4,36,1,1079
"subj003","word_reading","congruent",4,37,1,911
"subj003","word_reading","incongruent",4,38,1,674
"subj003","word_reading","incongruent",4,39,1,641
"subj003","word_reading","congruent",4,40,1,654
"subj003","ink_naming","congruent",4,41,1,1239
"subj003","word_reading","congruent",4,42,1,736
"subj003","word_reading","congruent",4,43,1,671
"subj003","ink_naming","congruent",4,45,1,860
"subj003","ink_naming","incongruent",4,46,1,1138
"subj003","ink_naming","congruent",4,47,1,1070
"subj003","ink_naming","incongruent",4,48,1,1038
"subj003","word_reading","congruent",4,49,1,651
"subj003","word_reading","incongruent",4,50,1,762
"subj003","word_reading","incongruent",5,1,1,581
"subj003","word_reading","incongruent",5,2,1,518
"subj003","word_reading","congruent",5,3,1,671
"subj003","ink_naming","incongruent",5,4,1,1354
"subj003","ink_naming","incongruent",5,5,1,1070
"subj003","word_reading","incongruent",5,6,1,582
"subj003","word_reading","incongruent",5,7,1,708
"subj003","ink_naming","incongruent",5,8,1,1273
"subj003","ink_naming","congruent",5,9,1,906
"subj003","word_reading","congruent",5,10,1,762
"subj003","ink_naming","congruent",5,11,1,972
"subj003","ink_naming","incongruent",5,12,1,953
"subj003","ink_naming","incongruent",5,13,1,1144
"subj003","word_reading","congruent",5,14,1,734
"subj003","ink_naming","congruent",5,15,1,978
"subj003","word_reading","congruent",5,16,1,713
"subj003","word_reading","congruent",5,17,1,613
"subj003","ink_naming","congruent",5,18,1,930
"subj003","word_reading","incongruent",5,19,1,706
"subj003","ink_naming","incongruent",5,20,1,1282
"subj003","ink_naming","incongruent",5,21,1,1015
"subj003","ink_naming","congruent",5,22,1,921
"subj003","word_reading","incongruent",5,23,1,716
"subj003","word_reading","incongruent",5,24,0,596
"subj003","ink_naming","incongruent",5,25,1,1016
"subj003","ink_naming","incongruent",5,26,1,1121
"subj003","word_reading","incongruent",5,27,1,670
"subj003","ink_naming","incongruent",5,28,1,1205
"subj003","ink_naming","incongruent",5,29,1,1111
"subj003","word_reading","congruent",5,30,1,553
"subj003","word_reading","incongruent",5,31,1,966
"subj003","word_reading","incongruent",5,32,1,671
"subj003","word_reading","congruent",5,33,1,939
"subj003","ink_naming","incongruent",5,34,1,1056
"subj003","word_reading","incongruent",5,35,1,774
"subj003","word_reading","incongruent",5,36,1,655
"subj003","word_reading","incongruent",5,37,1,827
"subj003","word_reading","congruent",5,38,1,637
"subj003","word_reading","congruent",5,39,1,698
"subj003","word_reading","incongruent",5,40,1,774
"subj003","word_reading","incongruent",5,41,1,687
"subj003","word_reading","congruent",5,42,1,629
"subj003","word_reading","congruent",5,43,1,680
"subj003","ink_naming","incongruent",5,44,1,964
"subj003","word_reading","incongruent",5,45,1,700
"subj003","word_reading","incongruent",5,46,1,668
"subj003","word_reading","congruent",5,47,1,702
"subj003","ink_naming","incongruent",5,48,1,988
"subj003","word_reading","incongruent",5,49,1,782
"subj003","ink_naming","incongruent",5,50,1,1144
"subj003","word_reading","incongruent",6,1,1,613
"subj003","ink_naming","congruent",6,2,1,1128
"subj003","ink_naming","congruent",6,3,1,986
"subj003","word_reading","incongruent",6,4,1,548
"subj003","word_reading","congruent",6,6,1,642
"subj003","ink_naming","congruent",6,7,1,1019
"subj003","word_reading","congruent",6,8,1,862
"subj003","ink_naming","congruent",6,9,1,1065
"subj003","word_reading","incongruent",6,10,1,726
"subj003","word_reading","congruent",6,11,1,726
"subj003","word_reading","incongruent",6,12,1,668
"subj003","ink_naming","incongruent",6,13,1,1239
"subj003","word_reading","incongruent",6,14,1,741
"subj003","ink_naming","congruent",6,15,1,937
"subj003","ink_naming","congruent",6,16,1,946
"subj003","word_reading","incongruent",6,17,1,773
"subj003","word_reading","congruent",6,18,1,605
"subj003","ink_naming","incongruent",6,19,1,1221
"subj003","ink_naming","incongruent",6,20,1,1234
"subj003","ink_naming","congruent",6,21,1,903
"subj003","word_reading","congruent",6,22,1,820
"subj003","word_reading","congruent",6,23,1,665
"subj003","ink_naming","congruent",6,24,1,1146
"subj003","word_reading","congruent",6,25,1,743
"subj003","word_reading","congruent",6,26,1,552
"subj003","word_reading","congruent",6,27,1,320
"subj003","word_reading","incongruent",6,28,1,639
"subj003","ink_naming","incongruent",6,29,1,1105
"subj003","word_reading","congruent",6,30,1,738
"subj003","word_reading","incongruent",6,31,1,824
"subj003","ink_naming","incongruent",6,32,1,1102
"subj003","word_reading","congruent",6,33,1,713
"subj003","word_reading","congruent",6,34,1,544
"subj003","ink_naming","congruent",6,35,1,788
"subj003","ink_naming","congruent",6,36,1,812
"subj003","word_reading","incongruent",6,37,1,639
"subj003","ink_naming","incongruent",6,38,1,318
"subj003","word_reading","incongruent",6,39,1,626
"subj003","word_reading","congruent",6,40,1,603
"subj003","ink_naming","congruent",6,41,1,971
"subj003","word_reading","incongruent",6,42,1,611
"subj003","word_reading","incongruent",6,43,1,779
"subj003","ink_naming","congruent",6,44,1,1020
"subj003","word_reading","incongruent",6,45,1,789
"subj003","ink_naming","congruent",6,46,1,907
"subj003","word_reading","incongruent",6,47,1,711
"subj003","ink_naming","congruent",6,48,1,1001
"subj003","ink_naming","incongruent",6,49,1,1191
"subj003","ink_naming","congruent",6,50,1,1012
"subj003","word_reading","congruent",7,1,1,627
"subj003","word_reading","incongruent",7,2,1,793
"subj003","ink_naming","congruent",7,3,1,1036
"subj003","ink_naming","congruent",7,4,1,988
"subj003","ink_naming","congruent",7,5,1,957
"subj003","ink_naming","incongruent",7,6,1,1228
"subj003","word_reading","congruent",7,7,1,875
"subj003","ink_naming","congruent",7,8,1,1147
"subj003","word_reading","incongruent",7,9,1,674
"subj003","word_reading","incongruent",7,10,1,709
"subj003","word_reading","incongruent",7,11,1,673
"subj003","word_reading","incongruent",7,12,1,738
"subj003","word_reading","congruent",7,13,1,667
"subj003","ink_naming","congruent",7,14,1,1167
"subj003","word_reading","congruent",7,15,1,665
"subj003","ink_naming","incongruent",7,16,1,1106
"subj003","ink_naming","incongruent",7,17,1,1138
"subj003","word_reading","congruent",7,18,1,681
"subj003","ink_naming","congruent",7,19,1,1069
"subj003","ink_naming","congruent",7,20,1,1053
"subj003","word_reading","incongruent",7,21,1,562
"subj003","ink_naming","congruent",7,22,1,934
"subj003","word_reading","incongruent",7,23,1,677
"subj003","word_reading","congruent",7,24,1,794
"subj003","ink_naming","incongruent",7,25,1,1148
"subj003","ink_naming","congruent",7,26,1,1050
"subj003","ink_naming","incongruent",7,27,1,1142
"subj003","word_reading","incongruent",7,28,1,676
"subj003","word_reading","incongruent",7,29,1,786
"subj003","ink_naming","congruent",7,30,1,1233
"subj003","word_reading","congruent",7,31,1,701
"subj003","ink_naming","congruent",7,33,1,904
"subj003","ink_naming","incongruent",7,34,1,1127
"subj003","word_reading","congruent",7,35,1,544
"subj003","word_reading","incongruent",7,36,1,752
"subj003","word_reading","incongruent",7,37,1,662
"subj003","ink_naming","congruent",7,38,1,1070
"subj003","ink_naming","incongruent",7,39,1,1244
"subj003","word_reading","incongruent",7,40,1,1932
"subj003","ink_naming","congruent",7,41,1,1056
"subj003","ink_naming","congruent",7,42,1,1097
"subj003","word_reading","congruent",7,43,1,632
"subj003","word_reading","congruent",7,44,1,607
"subj003","word_reading","incongruent",7,45,1,526
"subj003","word_reading","congruent",7,46,1,796
"subj003","word_reading","incongruent",7,48,1,708
"subj003","ink_naming","congruent",7,49,1,1111
"subj003","ink_naming","incongruent",7,50,1,1273
"subj003","ink_naming","congruent",8,1,1,1010
"subj003","word_reading","congruent",8,2,1,704
"subj003","ink_naming","congruent",8,3,1,1205
"subj003","word_reading","incongruent",8,4,1,675
"subj003","ink_naming","congruent",8,5,1,882
"subj003","ink_naming","congruent",8,6,1,1124
"subj003","ink_naming","incongruent",8,7,1,1090
"subj003","word_reading","incongruent",8,8,1,572
"subj003","ink_naming","congruent",8,9,1,966
"subj003","word_reading","congruent",8,10,1,616
"subj003","word_reading","congruent",8,11,1,601
"subj003","ink_naming","incongruent",8,12,1,1377
"subj003","word_reading","congruent",8,13,1,701
"subj003","ink_naming","incongruent",8,14,1,1206
"subj003","word_reading","congruent",8,15,1,489
"subj003","word_reading","congruent",8,16,1,710
"subj003","word_reading","congruent",8,17,1,520
"subj003","ink_naming","congruent",8,18,1,1047
"subj003","word_reading","incongruent",8,19,1,793
"subj003","ink_naming","congruent",8,21,1,946
"subj003","ink_naming","incongruent",8,22,1,1282
"subj003","ink_naming","incongruent",8,23,1,1041
"subj003","ink_naming","incongruent",8,24,1,1181
"subj003","word_reading","incongruent",8,25,1,1958
"subj003","ink_naming","incongruent",8,26,1,1224
"subj003","word_reading","incongruent",8,27,1,708
"subj003","word_reading","congruent",8,28,1,716
"subj003","ink_naming","incongruent",8,29,1,1052
"subj003","word_reading","congruent",8,30,1,794
"subj003","ink_naming","incongruent",8,31,1,1091
"subj003","ink_naming","incongruent",8,32,1,1048
"subj003","ink_naming","incongruent",8,33,1,1113
"subj003","word_reading","congruent",8,34,1,624
"subj003","ink_naming","congruent",8,35,1,1108
"subj003","word_reading","congruent",8,36,1,636
"subj003","ink_naming","incongruent",8,37,1,1387
"subj003","ink_naming","congruent",8,38,1,983
"subj003","ink_naming","congruent",8,39,1,1093
"subj003","word_reading","incongruent",8,40,1,663
"subj003","ink_naming","congruent",8,41,1,1023
"subj003","ink_naming","congruent",8,43,1,1138
"subj003","ink_naming","congruent",8,44,1,977
"subj003","word_reading","congruent",8,45,1,540
"subj003","word_reading","congruent",8,46,1,670
"subj003","ink_naming","congruent",8,47,1,972
"subj003","word_reading","congruent",8,48,1,697
"subj003","ink_naming","congruent",8,49,1,1109
"subj003","word_reading","congruent",8,50,1,599
"subj004","ink_naming","incongruent",1,1,1,1127
"subj004","word_reading","incongruent",1,2,1,670
"subj004","word_reading","congruent",1,3,1,733
"subj004","ink_naming","congruent",1,4,1,934
"subj004","ink_naming","congruent",1,5,1,941
"subj004","word_reading","congruent",1,6,1,587
"subj004","ink_naming","congruent",1,7,1,871
"subj004","ink_naming","incongruent",1,9,1,1152
"subj004","ink_naming","congruent",1,10,1,927
"subj004","word_reading","incongruent",1,11,1,707
"subj004","ink_naming","incongruent",1,12,1,1188
"subj004","word_reading","congruent",1,13,1,712
"subj004","word_reading","congruent",1,14,1,697
"subj004","ink_naming","incongruent",1,15,1,1214
"subj004","word_reading","congruent",1,16,1,629
"subj004","ink_naming","incongruent",1,18,1,1185
"subj004","word_reading","congruent",1,19,1,700
"subj004","word_reading","incongruent",1,20,1,751
"subj004","word_reading","congruent",1,21,1,719
"subj004","word_reading","congruent",1,22,1,775
"subj004","word_reading","congruent",1,23,1,783
"subj004","ink_naming","congruent",1,24,1,1087
"subj004","ink_naming","congruent",1,25,1,1039
"subj004","ink_naming","incongruent",1,26,1,1239
"subj004","ink_naming","incongruent",1,27,1,1037
"subj004","word_reading","incongruent",1,28,1,679
"subj004","word_reading","incongruent",1,29,1,530
"subj004","word_reading","incongruent",1,30,1,651
"subj004","word_reading","congruent",1,31,1,644
"subj004","word_reading","incongruent",1,32,1,629
"subj004","word_reading","incongruent",1,33,1,976
"subj004","word_reading","congruent",1,34,1,474
"subj004","word_reading","incongruent",1,35,1,808
"subj004","word_reading","congruent",1,36,0,611
"subj004","word_reading","incongruent",1,37,1,635
"subj004","word_reading","incongruent",1,38,1,835
"subj004","word_reading","congruent",1,39,1,742
"subj004","ink_naming","incongruent",1,40,1,1182
"subj004","word_reading","congruent",1,41,1,764
"subj004","word_reading","congruent",1,42,1,716
"subj004","ink_naming","incongruent",1,43,1,1054
"subj004","word_reading","incongruent",1,45,1,620
"subj004","word_reading","incongruent",1,46,1,859
"subj004","ink_naming","incongruent",1,47,1,1230
"subj004","word_reading","congruent",1,48,1,542
"subj004","word_reading","congruent",1,49,1,658
"subj004","word_reading","congruent",1,50,1,533
"subj004","ink_naming","congruent",2,1,1,1057
"subj004","ink_naming","incongruent",2,2,1,1282
"subj004","word_reading","congruent",2,3,1,708
"subj004","word_reading","incongruent",2,4,1,533
"subj004","ink_naming","incongruent",2,5,1,1204
"subj004","word_reading","congruent",2,6,1,664
"subj004","ink_naming","congruent",2,7,1,861
"subj004","word_reading","congruent",2,8,1,793
"subj004","ink_naming","incongruent",2,9,1,1092
"subj004","word_reading","congruent",2,10,1,767
"subj004","ink_naming","congruent",2,11,1,1021
"subj004","word_reading","incongruent",2,12,1,766
"subj004","word_reading","congruent",2,13,1,755
"subj004","ink_naming","incongruent",2,14,1,1120
"subj004","ink_naming","incongruent",2,15,1,1083
"subj004","ink_naming","incongruent",2,16,1,1073
"subj004","ink_naming","incongruent",2,17,1,1004
"subj004","word_reading","congruent",2,18,1,592
"subj004","word_reading","congruent",2,19,1,822
"subj004","word_reading","incongruent",2,20,1,577
"subj004","ink_naming","incongruent",2,21,1,2558
"subj004","word_reading","incongruent",2,22,1,643
"subj004","ink_naming","congruent",2,23,1,976
"subj004","word_reading","congruent",2,24,1,735
"subj004","ink_naming","incongruent",2,25,1,1033
"subj004","word_reading","congruent",2,26,1,691
"subj004","ink_naming","congruent",2,27,1,1217
"subj004","word_reading","incongruent",2,28,1,904
"subj004","ink_naming","incongruent",2,29,1,945
"subj004","ink_naming","incongruent",2,30,1,1053
"subj004","ink_naming","congruent",2,31,1,983
"subj004","word_reading","incongruent",2,32,1,612
"subj004","ink_naming","congruent",2,33,1,860
"subj004","ink_naming","incongruent",2,34,1,1198
"subj004","word_reading","congruent",2,35,1,677
"subj004","word_reading","incongruent",2,36,1,732
"subj004","ink_naming","congruent",2,37,1,967
"subj004","ink_naming","incongruent",2,38,1,1215
"subj004","ink_naming","incongruent",2,39,1,1225
"subj004","ink_naming","incongruent",2,40,1,1004
"subj004","word_reading","incongruent",2,41,1,748
"subj004","word_reading","congruent",2,42,1,656
"subj004","ink_naming","congruent",2,43,1,1000
"subj004","ink_naming","congruent",2,44,1,962
"subj004","word_reading","incongruent",2,45,1,808
"subj004","ink_naming","congruent",2,47,1,1052
"subj004","word_reading","congruent",2,48,0,696
"subj004","ink_naming","incongruent",2,49,1,1372
"subj004","word_reading","incongruent",2,50,1,594
"subj004","ink_naming","incongruent",3,1,1,1120
"subj004","ink_naming","incongruent",3,2,1,1309
"subj004","ink_naming","incongruent",3,3,1,1079
"subj004","word_reading","congruent",3,4,1,590
"subj004","ink_naming","congruent",3,5,1,1025
"subj004","word_reading","incongruent",3,6,1,719
"subj004","word_reading","congruent",3,7,1,781
"subj004","word_reading","congruent",3,8,1,637
"subj004","word_reading","congruent",3,9,1,682
"subj004","word_reading","congruent",3,10,1,562
"subj004","word_reading","congruent",3,11,1,655
"subj004","ink_naming","incongruent",3,12,1,1240
"subj004","word_reading","incongruent",3,13,1,864
"subj004","word_reading","incongruent",3,14,1,815
"subj004","ink_naming","incongruent",3,15,1,940
"subj004","ink_naming","incongruent",3,16,1,1280
"subj004","word_reading","congruent",3,17,1,878
"subj004","ink_naming","incongruent",3,18,0,1204
"subj004","ink_naming","congruent",3,19,1,993
"subj004","ink_naming","incongruent",3,20,1,1052
"subj004","ink_naming","congruent",3,21,1,940
"subj004","ink_naming","incongruent",3,22,1,1223
"subj004","ink_naming","congruent",3,23,1,911
"subj004","ink_naming","congruent",3,24,1,1085
"subj004","word_reading","congruent",3,25,1,722
"subj004","ink_naming","congruent",3,27,1,1052
"subj004","ink_naming","incongruent",3,28,1,1073
"subj004","word_reading","incongruent",3,30,1,773
"subj004","ink_naming","incongruent",3,31,1,1142
"subj004","word_reading","congruent",3,32,1,703
"subj004","word_reading","incongruent",3,33,1,688
"subj004","word_reading","incongruent",3,34,1,800
"subj004","ink_naming","incongruent",3,35,1,1248
"subj004","ink_naming","incongruent",3,36,1,1155
"subj004","word_reading","congruent",3,37,1,683
"subj004","ink_naming","congruent",3,38,1,979
"subj004","word_reading","congruent",3,39,1,775
"subj004","word_reading","incongruent",3,40,0,713
"subj004","ink_naming","congruent",3,41,1,1209
"subj004","ink_naming","incongruent",3,42,1,1125
"subj004","ink_naming","congruent",3,43,1,1145
"subj004","ink_naming","congruent",3,44,1,940
"subj004","ink_naming","incongruent",3,45,1,1129
"subj004","word_reading","congruent",3,46,1,643
"subj004","ink_naming","congruent",3,47,1,989
"subj004","ink_naming","congruent",3,48,1,1165
"subj004","word_reading","congruent",3,49,1,597
"subj004","ink_naming","incongruent",3,50,1,981
"subj004","word_reading","congruent",4,1,1,729
"subj004","ink_naming","incongruent",4,2,1,1112
"subj004","word_reading","incongruent",4,3,1,714
"subj004","ink_naming","congruent",4,4,1,903
"subj004","word_reading","congruent",4,5,1,680
"subj004","ink_naming","congruent",4,6,1,889
"subj004","word_reading","congruent",4,7,1,718
"subj004","word_reading","incongruent",4,8,1,896
"subj004","word_reading","incongruent",4,9,1,628
"subj004","ink_naming","congruent",4,10,1,767
"subj004","ink_naming","congruent",4,11,1,843
"subj004","word_reading","congruent",4,12,1,692
"subj004","ink_naming","incongruent",4,13,1,1173
"subj004","ink_naming","incongruent",4,14,1,1096
"subj004","ink_naming","incongruent",4,15,1,959
"subj004","ink_naming","congruent",4,16,1,1069
"subj004","ink_naming","incongruent",4,17,1,1291
"subj004","word_reading","congruent",4,18,0,717
"subj004","ink_naming","congruent",4,19,1,1137
"subj004","ink_naming","congruent",4,20,1,956
"subj004","word_reading","incongruent",4,21,1,618
"subj004","word_reading","congruent",4,22,1,757
"subj004","ink_naming","congruent",4,24,1,991
"subj004","ink_naming","congruent",4,25,1,883
"subj004","ink_naming","incongruent",4,26,1,1206
"subj004","word_reading","congruent",4,27,1,719
"subj004","word_reading","congruent",4,28,1,520
"subj004","ink_naming","congruent",4,29,1,1054
"subj004","word_reading","congruent",4,30,1,670
"subj004","word_reading","incongruent",4,31,1,752
"subj004","ink_naming","incongruent",4,32,1,1131
"subj004","word_reading","congruent",4,33,1,688
"subj004","ink_naming","congruent",4,34,1,942
"subj004","word_reading","congruent",4,35,1,607
"subj004","word_reading","congruent",4,37,1,489
"subj004","word_reading","congruent",4,38,1,888
"subj004","ink_naming","incongruent",4,39,1,1263
"subj004","ink_naming","incongruent",4,40,1,1144
"subj004","word_reading","incongruent",4,41,1,890
"subj004","word_reading","congruent",4,42,1,696
"subj004","word_reading","congruent",4,43,1,688
"subj004","ink_naming","incongruent",4,44,1,996
"subj004","ink_naming","incongruent",4,45,1,1120
"subj004","ink_naming","congruent",4,46,1,901
"subj004","ink_naming","congruent",4,47,1,1141
"subj004","word_reading","congruent",4,48,1,543
"subj004","ink_naming","congruent",4,49,1,1009
"subj004","ink_naming","congruent",4,50,1,937
"subj004","ink_naming","congruent",5,1,1,992
"subj004","word_reading","incongruent",5,2,1,742
"subj004","word_reading","congruent",5,3,1,628
"subj004","ink_naming","congruent",5,4,1,1012
"subj004","word_reading","congruent",5,5,1,633
"subj004","ink_naming","congruent",5,6,1,1102
"subj004","ink_naming","incongruent",5,7,1,334
"subj004","word_reading","congruent",5,8,1,580
"subj004","word_reading","incongruent",5,9,1,633
"subj004","ink_naming","incongruent",5,10,1,1361
"subj004","word_reading","congruent",5,11,1,702
"subj004","ink_naming","incongruent",5,12,1,1306
"subj004","ink_naming","incongruent",5,13,1,1084
"subj004","word_reading","congruent",5,14,1,556
"subj004","ink_naming","congruent",5,15,1,945
"subj004","ink_naming","incongruent",5,17,1,979
"subj004","word_reading","incongruent",5,18,1,655
"subj004","word_reading","incongruent",5,19,1,655
"subj004","ink_naming","congruent",5,20,0,1044
"subj004","word_reading","incongruent",5,21,1,686
"subj004","ink_naming","incongruent",5,22,1,1293
"subj004","ink_naming","congruent",5,23,1,828
"subj004","ink_naming","incongruent",5,24,1,1262
"subj004","ink_naming","incongruent",5,25,1,1168
"subj004","word_reading","congruent",5,26,1,665
"subj004","word_reading","congruent",5,27,1,721
"subj004","word_reading","congruent",5,28,1,813
"subj004","ink_naming","incongruent",5,29,1,1147
"subj004","word_reading","congruent",5,30,1,755
"subj004","ink_naming","congruent",5,31,1,713
"subj004","ink_naming","congruent",5,32,1,1090
"subj004","ink_naming","incongruent",5,33,1,1288
"subj004","ink_naming","congruent",5,34,1,829
"subj004","ink_naming","incongruent",5,35,1,1164
"subj004","ink_naming","incongruent",5,36,1,990
"subj004","word_reading","incongruent",5,37,1,806
"subj004","ink_naming","congruent",5,38,1,965
"subj004","ink_naming","incongruent",5,39,1,1177
"subj004","ink_naming","congruent",5,41,1,1016
"subj004","ink_naming","congruent",5,42,0,1157
"subj004","word_reading","incongruent",5,43,1,797
"subj004","ink_naming","congruent",5,44,1,839
"subj004","word_reading","incongruent",5,45,1,717
"subj004","ink_naming","congruent",5,47,1,1188
"subj004","ink_naming","incongruent",5,48,1,1048
"subj004","ink_naming","congruent",5,49,1,1668
"subj004","ink_naming","incongruent",5,50,1,1145
"subj004","word_reading","congruent",6,1,1,895
"subj004","word_reading","incongruent",6,2,1,732
"subj004","word_reading","incongruent",6,3,1,717
"subj004","word_reading","incongruent",6,4,1,732
"subj004","ink_naming","incongruent",6,5,1,1315
"subj004","ink_naming","incongruent",6,6,1,1010
"subj004","word_reading","congruent",6,7,1,379
"subj004","ink_naming","congruent",6,8,1,1035
"subj004","word_reading","incongruent",6,9,1,617
"subj004","word_reading","incongruent",6,10,1,784
"subj004","ink_naming","incongruent",6,11,1,1274
"subj004","word_reading","incongruent",6,12,1,808
"subj004","word_reading","incongruent",6,13,1,771
"subj004","ink_naming","incongruent",6,14,1,1110
"subj004","ink_naming","congruent",6,17,1,1165
"subj004","ink_naming","congruent",6,18,1,967
"subj004","word_reading","incongruent",6,19,1,739
"subj004","word_reading","congruent",6,20,1,694
"subj004","ink_naming","incongruent",6,21,1,1180
"subj004","word_reading","incongruent",6,22,1,663
"subj004","ink_naming","congruent",6,23,1,1065
"subj004","word_reading","congruent",6,24,1,681
"subj004","word_reading","congruent",6,25,1,888
"subj004","ink_naming","incongruent",6,26,1,996
"subj004","ink_naming","congruent",6,27,1,922
"subj004","ink_naming","congruent",6,28,1,1062
"subj004","ink_naming","congruent",6,29,1,1213
"subj004","ink_naming","congruent",6,30,1,1118
"subj004","ink_naming","incongruent",6,31,1,1231
"subj004","word_reading","congruent",6,32,1,843
"subj004","ink_naming","congruent",6,33,1,992
"subj004","ink_naming","incongruent",6,34,1,1130
"subj004","word_reading","congruent",6,35,1,700
"subj004","ink_naming","congruent",6,36,0,1028
"subj004","word_reading","congruent",6,37,1,717
"subj004","word_reading","congruent",6,38,1,597
"subj004","ink_naming","congruent",6,39,1,1155
"subj004","ink_naming","congruent",6,40,1,924
"subj004","word_reading","congruent",6,42,1,526
"subj004","ink_naming","incongruent",6,43,1,1160
"subj004","ink_naming","congruent",6,44,1,960
"subj004","ink_naming","incongruent",6,45,1,1038
"subj004","word_reading","congruent",6,46,1,803
"subj004","word_reading","congruent",6,47,1,449
"subj004","word_reading","congruent",6,48,1,2367
"subj004","word_reading","congruent",6,50,1,654
"subj004","word_reading","congruent",7,1,1,589
"subj004","word_reading","congruent",7,2,1,725
"subj004","word_reading","congruent",7,3,1,660
"subj004","word_reading","congruent",7,4,1,614
"subj004","ink_naming","congruent",7,5,1,918
"subj004","word_reading","incongruent",7,6,1,773
"subj004","word_reading","incongruent",7,7,1,694
"subj004","ink_naming","congruent",7,8,1,981
"subj004","ink_naming","congruent",7,10,1,1078
"subj004","ink_naming","congruent",7,11,1,943
"subj004","word_reading","congruent",7,13,1,741
"subj004","ink_naming","incongruent",7,14,1,1120
"subj004","word_reading","incongruent",7,15,1,748
"subj004","ink_naming","congruent",7,16,1,852
"subj004","word_reading","incongruent",7,17,1,700
"subj004","ink_naming","congruent",7,18,1,953
"subj004","word_reading","incongruent",7,19,1,807
"subj004","word_reading","incongruent",7,20,1,592
"subj004","word_reading","incongruent",7,21,1,779
"subj004","word_reading","congruent",7,22,1,607
"subj004","ink_naming","incongruent",7,23,1,1133
"subj004","ink_naming","congruent",7,24,1,1047
"subj004","ink_naming","incongruent",7,25,1,1191
"subj004","word_reading","incongruent",7,26,1,700
"subj004","word_reading","congruent",7,27,1,687
"subj004","ink_naming","congruent",7,28,1,866
"subj004","word_reading","congruent",7,29,1,586
"subj004","ink_naming","congruent",7,30,1,1057
"subj004","word_reading","congruent",7,31,1,656
"subj004","ink_naming","incongruent",7,32,1,1125
"subj004","ink_naming","incongruent",7,33,1,1243
"subj004","ink_naming","incongruent",7,34,1,1033
"subj004","word_reading","incongruent",7,35,1,652
"subj004","ink_naming","congruent",7,36,1,1076
"subj004","ink_naming","incongruent",7,38,1,1025
"subj004","ink_naming","congruent",7,39,1,941
"subj004","ink_naming","incongruent",7,40,1,1053
"subj004","ink_naming","congruent",7,41,1,1058
"subj004","ink_naming","incongruent",7,42,1,1156
"subj004","word_reading","incongruent",7,43,1,760
"subj004","ink_naming","congruent",7,44,1,1043
"subj004","word_reading","congruent",7,45,1,716
"subj004","ink_naming","incongruent",7,46,1,1253
"subj004","ink_naming","congruent",7,47,1,1137
"subj004","ink_naming","incongruent",7,48,1,1213
"subj004","word_reading","congruent",7,49,1,614
"subj004","ink_naming","incongruent",7,50,1,945
"subj004","ink_naming","congruent",8,1,0,915
"subj004","word_reading","congruent",8,2,1,689
"subj004","ink_naming","incongruent",8,3,1,1179
"subj004","ink_naming","incongruent",8,4,1,1073
"subj004","word_reading","incongruent",8,5,0,694
"subj004","word_reading","incongruent",8,6,1,609
"subj004","word_reading","congruent",8,7,0,603
"subj004","word_reading","incongruent",8,8,1,709
"subj004","word_reading","congruent",8,9,1,685
"subj004","word_reading","incongruent",8,10,1,603
"subj004","word_reading","congruent",8,11,1,779
"subj004","word_reading","incongruent",8,12,1,688
"subj004","word_reading","incongruent",8,13,1,701
"subj004","ink_naming","congruent",8,14,1,825
"subj004","ink_naming","congruent",8,15,1,912
"subj004","word_reading","incongruent",8,16,1,628
"subj004","ink_naming","congruent",8,17,1,950
"subj004","word_reading","incongruent",8,18,1,800
"subj004","word_reading","incongruent",8,19,1,604
"subj004","word_reading","congruent",8,20,1,722
"subj004","ink_naming","congruent",8,21,1,1152
"subj004","word_reading","incongruent",8,22,1,657
"subj004","word_reading","congruent",8,25,1,713
"subj004","word_reading","congruent",8,26,1,705
"subj004","word_reading","congruent",8,27,1,624
"subj004","word_reading","incongruent",8,28,1,716
"subj004","ink_naming","congruent",8,29,1,969
"subj004","word_reading","congruent",8,30,1,828
"subj004","ink_naming","incongruent",8,31,1,1116
"subj004","word_reading","incongruent",8,32,1,751
"subj004","word_reading","incongruent",8,33,1,686
"subj004","ink_naming","incongruent",8,34,1,1168
"subj004","word_reading","incongruent",8,35,1,600
"subj004","word_reading","incongruent",8,36,1,654
"subj004","ink_naming","congruent",8,37,1,1072
"subj004","word_reading","congruent",8,38,1,670
"subj004","ink_naming","congruent",8,40,1,1052
"subj004","ink_naming","incongruent",8,41,1,1286
"subj004","word_reading","incongruent",8,42,1,741
"subj004","ink_naming","congruent",8,44,1,734
"subj004","ink_naming","incongruent",8,45,1,1121
"subj004","ink_naming","incongruent",8,46,1,1056
"subj004","ink_naming","incongruent",8,47,1,1155
"subj004","ink_naming","incongruent",8,48,1,1109
"subj004","ink_naming","incongruent",8,49,1,1172
"subj004","word_reading","congruent",8,50,1,680
"subj005","ink_naming","incongruent",1,1,1,1256
"subj005","word_reading","congruent",1,2,1,731
"subj005","word_reading","congruent",1,3,1,709
"subj005","word_reading","congruent",1,4,1,607
"subj005","ink_naming","incongruent",1,5,1,1167
"subj005","ink_naming","incongruent",1,6,1,1211
"subj005","word_reading","incongruent",1,7,1,634
"subj005","ink_naming","congruent",1,8,1,1054
"subj005","ink_naming","congruent",1,9,1,1057
"subj005","word_reading","congruent",1,10,1,826
"subj005","word_reading","incongruent",1,11,1,732
"subj005","word_reading","incongruent",1,12,1,758
"subj005","ink_naming","incongruent",1,13,1,1250
"subj005","word_reading","incongruent",1,14,1,850
"subj005","ink_naming","incongruent",1,15,1,952
"subj005","ink_naming","incongruent",1,16,1,1142
"subj005","word_reading","congruent",1,17,1,714
"subj005","ink_naming","congruent",1,18,1,908
"subj005","ink_naming","congruent",1,19,1,1040
"subj005","word_reading","incongruent",1,20,1,628
"subj005","ink_naming","congruent",1,21,1,907
"subj005","ink_naming","incongruent",1,22,0,1233
"subj005","word_reading","congruent",1,23,1,633
"subj005","ink_naming","incongruent",1,24,0,1249
"subj005","word_reading","incongruent",1,25,1,690
"subj005","ink_naming","incongruent",1,26,1,1065
"subj005","word_reading","incongruent",1,27,1,690
"subj005","word_reading","incongruent",1,28,1,691
"subj005","word_reading","congruent",1,29,1,632
"subj005","word_reading","incongruent",1,31,1,499
"subj005","ink_naming","congruent",1,32,1,1025
"subj005","word_reading","incongruent",1,33,1,725
"subj005","word_reading","incongruent",1,34,1,686
"subj005","word_reading","congruent",1,35,1,611
"subj005","word_reading","incongruent",1,36,1,594
"subj005","word_reading","congruent",1,37,1,588
"subj005","word_reading","congruent",1,38,1,466
"subj005","ink_naming","congruent",1,39,1,715
"subj005","word_reading","congruent",1,40,1,704
"subj005","word_reading","incongruent",1,41,1,660
"subj005","ink_naming","congruent",1,42,1,1008
"subj005","ink_naming","incongruent",1,43,1,1206
"subj005","ink_naming","incongruent",1,44,1,1269
"subj005","word_reading","incongruent",1,45,1,617
"subj005","word_reading","incongruent",1,46,1,688
"subj005","ink_naming","congruent",1,47,1,1042
"subj005","ink_naming","incongruent",1,48,1,1097
"subj005","ink_naming","incongruent",1,49,1,1184
"subj005","ink_naming","incongruent",1,50,1,1251
"subj005","ink_naming","incongruent",2,1,1,1197
"subj005","word_reading","congruent",2,2,1,767
"subj005","word_reading","incongruent",2,3,1,558
"subj005","word_reading","incongruent",2,4,1,954
"subj005","word_reading","congruent",2,5,1,463
"subj005","ink_naming","congruent",2,7,1,959
"subj005","word_reading","congruent",2,8,1,701
"subj005","ink_naming","incongruent",2,9,1,947
"subj005","ink_naming","incongruent",2,10,1,1239
"subj005","ink_naming","congruent",2,11,1,925
"subj005","ink_naming","incongruent",2,12,1,1399
"subj005","word_reading","congruent",2,13,1,736
"subj005","ink_naming","congruent",2,15,1,1027
"subj005","ink_naming","congruent",2,16,1,849
"subj005","ink_naming","incongruent",2,18,1,1101
"subj005","ink_naming","congruent",2,19,1,1119
"subj005","ink_naming","congruent",2,20,1,804
"subj005","ink_naming","congruent",2,21,1,910
"subj005","ink_naming","congruent",2,22,1,1069
"subj005","ink_naming","congruent",2,23,1,795
"subj005","word_reading","congruent",2,24,1,642
"subj005","ink_naming","congruent",2,25,1,1275
"subj005","word_reading","incongruent",2,26,1,592
"subj005","ink_naming","incongruent",2,27,1,1159
"subj005","ink_naming","congruent",2,28,1,933
"subj005","word_reading","incongruent",2,31,1,761
"subj005","word_reading","congruent",2,32,1,763
"subj005","ink_naming","congruent",2,33,1,844
"subj005","word_reading","incongruent",2,34,1,779
"subj005","ink_naming","congruent",2,35,1,839
"subj005","word_reading","incongruent",2,36,1,644
"subj005","word_reading","congruent",2,37,1,828
"subj005","ink_naming","incongruent",2,38,1,1156
"subj005","word_reading","incongruent",2,39,1,930
"subj005","word_reading","congruent",2,40,1,773
"subj005","word_reading","incongruent",2,41,1,891
"subj005","ink_naming","incongruent",2,42,1,974
"subj005","ink_naming","incongruent",2,43,1,1101
"subj005","word_reading","incongruent",2,45,1,861
"subj005","ink_naming","incongruent",2,46,1,1095
"subj005","ink_naming","incongruent",2,47,1,1126
"subj005","ink_naming","incongruent",2,48,1,1110
"subj005","word_reading","incongruent",2,49,1,609
"subj005","word_reading","congruent",2,50,1,817
"subj005","word_reading","congruent",3,1,1,658
"subj005","word_reading","incongruent",3,2,1,828
"subj005","word_reading","incongruent",3,3,1,671
"subj005","word_reading","incongruent",3,4,1,758
"subj005","word_reading","congruent",3,5,1,631
"subj005","ink_naming","congruent",3,6,1,844
"subj005","ink_naming","congruent",3,7,1,993
"subj005","word_reading","congruent",3,8,1,672
"subj005","ink_naming","incongruent",3,9,1,1077
"subj005","word_reading","congruent",3,10,1,603
"subj005","ink_naming","incongruent",3,11,1,982
"subj005","word_reading","incongruent",3,12,1,724
"subj005","word_reading","congruent",3,13,1,644
"subj005","word_reading","incongruent",3,14,1,811
"subj005","word_reading","congruent",3,15,1,753
"subj005","ink_naming","congruent",3,16,1,1138
"subj005","word_reading","congruent",3,17,1,836
"subj005","ink_naming","congruent",3,18,1,917
"subj005","word_reading","incongruent",3,20,1,855
"subj005","ink_naming","congruent",3,21,1,1001
"subj005","word_reading","congruent",3,22,1,628
"subj005","ink_naming","incongruent",3,23,1,1248
"subj005","word_reading","congruent",3,24,1,605
"subj005","word_reading","congruent",3,25,1,697
"subj005","ink_naming","congruent",3,26,1,874
"subj005","ink_naming","incongruent",3,27,1,1149
"subj005","word_reading","congruent",3,28,1,926
"subj005","ink_naming","incongruent",3,29,1,1156
"subj005","ink_naming","incongruent",3,30,1,1158
"subj005","word_reading","incongruent",3,31,1,621
"subj005","word_reading","congruent",3,32,1,757
"subj005","ink_naming","congruent",3,34,1,1009
"subj005","word_reading","congruent",3,35,1,670
"subj005","word_reading","incongruent",3,36,1,769
"subj005","ink_naming","congruent",3,37,1,1111
"subj005","ink_naming","congruent",3,38,1,940
"subj005","ink_naming","incongruent",3,39,1,1288
"subj005","ink_naming","incongruent",3,40,1,1151
"subj005","ink_naming","incongruent",3,41,1,1097
"subj005","ink_naming","congruent",3,42,1,1125
"subj005","word_reading","congruent",3,43,1,777
"subj005","word_reading","congruent",3,44,1,699
"subj005","ink_naming","congruent",3,45,1,957
"subj005","word_reading","incongruent",3,46,1,775
"subj005","word_reading","incongruent",3,47,1,641
"subj005","ink_naming","congruent",3,48,1,1043
"subj005","ink_naming","congruent",3,49,1,868
"subj005","ink_naming","congruent",3,50,1,1104
"subj005","ink_naming","incongruent",4,1,1,1346
"subj005","word_reading","incongruent",4,2,1,756
"subj005","ink_naming","congruent",4,3,1,1131
"subj005","ink_naming","incongruent",4,4,1,964
"subj005","word_reading","congruent",4,5,1,479
"subj005","ink_naming","congruent",4,6,1,1149
"subj005","word_reading","congruent",4,7,1,652
"subj005","word_reading","congruent",4,8,1,556
"subj005","word_reading","incongruent",4,9,1,824
"subj005","word_reading","incongruent",4,10,1,678
"subj005","ink_naming","incongruent",4,11,1,1031
"subj005","ink_naming","congruent",4,12,1,1012
"subj005","word_reading","congruent",4,13,1,660
"subj005","word_reading","incongruent",4,14,1,666
"subj005","ink_naming","incongruent",4,15,1,1200
"subj005","word_reading","congruent",4,16,1,572
"subj005","word_reading","congruent",4,17,1,561
"subj005","word_reading","congruent",4,18,1,692
"subj005","ink_naming","congruent",4,19,1,1014
"subj005","ink_naming","incongruent",4,20,1,1116
"subj005","word_reading","incongruent",4,21,1,762
"subj005","word_reading","incongruent",4,22,1,774
"subj005","word_reading","congruent",4,23,1,941
"subj005","ink_naming","congruent",4,24,1,1033
"subj005","ink_naming","incongruent",4,25,1,1217
"subj005","word_reading","congruent",4,26,1,619
"subj005","word_reading","incongruent",4,27,1,842
"subj005","word_reading","incongruent",4,28,1,741
"subj005","word_reading","incongruent",4,29,1,875
"subj005","ink_naming","congruent",4,30,1,1053
"subj005","ink_naming","congruent",4,31,1,957
"subj005","word_reading","incongruent",4,32,1,768
"subj005","ink_naming","incongruent",4,33,1,1213
"subj005","ink_naming","incongruent",4,34,1,1060
"subj005","word_reading","congruent",4,35,1,509
"subj005","word_reading","congruent",4,36,1,878
"subj005","word_reading","incongruent",4,37,1,798
"subj005","word_reading","congruent",4,38,1,636
"subj005","ink_naming","incongruent",4,39,1,1165
"subj005","ink_naming","congruent",4,40,1,1180
"subj005","word_reading","congruent",4,41,1,678
"subj005","ink_naming","incongruent",4,42,1,1035
"subj005","ink_naming","congruent",4,43,1,1017
"subj005","word_reading","congruent",4,44,1,679
"subj005","word_reading","incongruent",4,45,1,490
"subj005","word_reading","incongruent",4,46,1,537
"subj005","ink_naming","incongruent",4,47,1,1305
"subj005","word_reading","congruent",4,48,1,543
"subj005","ink_naming","congruent",4,49,1,1081
"subj005","word_reading","incongruent",4,50,1,682
"subj005","word_reading","congruent",5,1,1,563
"subj005","word_reading","incongruent",5,2,1,629
"subj005","ink_naming","congruent",5,3,1,1166
"subj005","word_reading","incongruent",5,4,1,766
"subj005","ink_naming","congruent",5,5,1,784
"subj005","word_reading","congruent",5,6,1,604
"subj005","word_reading","congruent",5,7,1,739
"subj005","word_reading","incongruent",5,8,1,697
"subj005","ink_naming","congruent",5,9,1,906
"subj005","ink_naming","congruent",5,10,1,1115
"subj005","ink_naming","congruent",5,11,1,1252
"subj005","ink_naming","congruent",5,12,1,1113
"subj005","word_reading","congruent",5,13,1,761
"subj005","ink_naming","congruent",5,14,1,858
"subj005","ink_naming","congruent",5,15,0,1113
"subj005","word_reading","congruent",5,16,1,852
"subj005","word_reading","congruent",5,17,1,540
"subj005","word_reading","incongruent",5,18,1,780
"subj005","word_reading","incongruent",5,19,1,669
"subj005","word_reading","congruent",5,20,1,681
"subj005","word_reading","congruent",5,21,1,810
"subj005","word_reading","congruent",5,22,1,663
"subj005","word_reading","incongruent",5,23,1,692
"subj005","word_reading","incongruent",5,24,0,744
"subj005","word_reading","incongruent",5,27,1,692
"subj005","word_reading","incongruent",5,28,1,613
"subj005","word_reading","congruent",5,29,1,893
"subj005","word_reading","congruent",5,30,1,705
"subj005","ink_naming","congruent",5,31,1,861
"subj005","word_reading","incongruent",5,32,1,825
"subj005","ink_naming","congruent",5,33,1,1039
"subj005","ink_naming","incongruent",5,34,1,1271
"subj005","word_reading","congruent",5,35,1,748
"subj005","ink_naming","congruent",5,36,1,998
"subj005","word_reading","congruent",5,37,1,595
"subj005","ink_naming","congruent",5,38,1,881
"subj005","word_reading","incongruent",5,39,1,810
"subj005","word_reading","incongruent",5,41,1,643
"subj005","word_reading","congruent",5,42,1,762
"subj005","ink_naming","incongruent",5,43,1,1016
"subj005","ink_naming","congruent",5,44,1,1166
"subj005","ink_naming","incongruent",5,45,1,1159
"subj005","word_reading","congruent",5,46,1,724
"subj005","word_reading","congruent",5,47,1,660
"subj005","word_reading","incongruent",5,48,1,798
"subj005","word_reading","congruent",5,49,1,726
"subj005","ink_naming","congruent",5,50,1,900
"subj005","ink_naming","congruent",6,1,1,1040
"subj005","ink_naming","incongruent",6,2,1,1154
"subj005","ink_naming","congruent",6,3,1,977
"subj005","word_reading","incongruent",6,4,1,643
"subj005","word_reading","congruent",6,5,1,901
"subj005","ink_naming","incongruent",6,6,1,1028
"subj005","word_reading","congruent",6,7,0,686
"subj005","ink_naming","incongruent",6,8,1,1081
"subj005","ink_naming","incongruent",6,9,1,1201
"subj005","word_reading","incongruent",6,10,1,761
"subj005","word_reading","congruent",6,11,1,675
"subj005","word_reading","incongruent",6,12,1,698
"subj005","word_reading","incongruent",6,13,1,384
"subj005","ink_naming","incongruent",6,14,1,1232
"subj005","ink_naming","incongruent",6,15,1,357
"subj005","ink_naming","incongruent",6,16,1,1241
"subj005","ink_naming","congruent",6,17,1,844
"subj005","word_reading","incongruent",6,18,1,723
"subj005","ink_naming","incongruent",6,19,1,1032
"subj005","ink_naming","congruent",6,20,1,1086
"subj005","word_reading","congruent",6,21,1,748
"subj005","ink_naming","congruent",6,22,1,859
"subj005","word_reading","incongruent",6,23,1,774
"subj005","ink_naming","congruent",6,24,1,970
"subj005","word_reading","congruent",6,25,1,552
"subj005","word_reading","incongruent",6,26,1,741
"subj005","ink_naming","congruent",6,27,1,1067
"subj005","ink_naming","congruent",6,28,1,977
"subj005","word_reading","congruent",6,30,1,716
"subj005","ink_naming","congruent",6,31,1,1004
"subj005","ink_naming","incongruent",6,32,1,1235
"subj005","ink_naming","incongruent",6,33,1,1078
"subj005","ink_naming","congruent",6,34,1,890
"subj005","ink_naming","incongruent",6,35,1,1324
"subj005","ink_naming","incongruent",6,36,1,1188
"subj005","ink_naming","congruent",6,37,0,945
"subj005","word_reading","incongruent",6,38,1,775
"subj005","ink_naming","incongruent",6,39,1,1018
"subj005","word_reading","incongruent",6,40,1,759
"subj005","word_reading","incongruent",6,41,1,663
"subj005","word_reading","congruent",6,42,1,618
"subj005","word_reading","incongruent",6,43,1,672
"subj005","ink_naming","congruent",6,44,1,1199
"subj005","ink_naming","incongruent",6,45,1,1277
"subj005","ink_naming","incongruent",6,46,1,963
"subj005","word_reading","congruent",6,47,1,708
"subj005","word_reading","incongruent",6,48,1,781
"subj005","ink_naming","congruent",6,49,1,994
"subj005","word_reading","congruent",6,50,1,570
"subj005","ink_naming","congruent",7,1,1,1250
"subj005","word_reading","congruent",7,2,1,645
"subj005","word_reading","incongruent",7,3,1,693
"subj005","ink_naming","incongruent",7,4,1,1037
"subj005","ink_naming","congruent",7,5,1,844
"subj005","ink_naming","incongruent",7,6,1,1281
"subj005","word_reading","incongruent",7,7,1,731
"subj005","ink_naming","incongruent",7,8,1,1090
"subj005","word_reading","congruent",7,9,1,628
"subj005","word_reading","incongruent",7,10,1,721
"subj005","ink_naming","congruent",7,11,1,702
"subj005","ink_naming","incongruent",7,12,1,1241
"subj005","ink_naming","congruent",7,13,1,1031
"subj005","ink_naming","incongruent",7,14,1,1341
"subj005","ink_naming","congruent",7,15,1,1100
"subj005","word_reading","incongruent",7,16,1,756
"subj005","word_reading","incongruent",7,17,1,714
"subj005","word_reading","congruent",7,18,1,694
"subj005","word_reading","congruent",7,19,1,710
"subj005","ink_naming","congruent",7,20,1,1049
"subj005","word_reading","incongruent",7,21,1,631
"subj005","word_reading","congruent",7,22,1,777
"subj005","ink_naming","congruent",7,23,1,734
"subj005","ink_naming","congruent",7,24,1,1040
"subj005","word_reading","incongruent",7,25,1,710
"subj005","word_reading","congruent",7,26,1,925
"subj005","ink_naming","incongruent",7,28,1,1175
"subj005","ink_naming","incongruent",7,29,1,998
"subj005","word_reading","congruent",7,30,1,631
"subj005","word_reading","incongruent",7,31,1,783
"subj005","word_reading","congruent",7,32,1,700
"subj005","ink_naming","incongruent",7,33,1,1186
"subj005","ink_naming","congruent",7,34,1,1055
"subj005","ink_naming","congruent",7,35,1,894
"subj005","ink_naming","incongruent",7,36,1,1270
"subj005","word_reading","incongruent",7,37,1,818
"subj005","ink_naming","incongruent",7,38,1,1175
"subj005","word_reading","congruent",7,39,1,668
"subj005","ink_naming","incongruent",7,40,1,1206
"subj005","word_reading","congruent",7,41,1,769
"subj005","ink_naming","incongruent",7,42,1,399
"subj005","word_reading","incongruent",7,43,1,703
"subj005","ink_naming","congruent",7,44,1,1059
"subj005","word_reading","congruent",7,45,1,652
"subj005","ink_naming","incongruent",7,47,1,1045
"subj005","word_reading","incongruent",7,48,1,598
"subj005","word_reading","congruent",7,49,1,651
"subj005","ink_naming","congruent",8,2,1,1081
"subj005","ink_naming","congruent",8,3,1,1061
"subj005","word_reading","congruent",8,4,1,788
"subj005","word_reading","incongruent",8,5,1,648
"subj005","ink_naming","congruent",8,6,1,1018
"subj005","ink_naming","congruent",8,7,1,1016
"subj005","ink_naming","incongruent",8,8,1,1339
"subj005","word_reading","incongruent",8,9,1,603
"subj005","ink_naming","congruent",8,10,1,1082
"subj005","word_reading","congruent",8,11,1,734
"subj005","word_reading","incongruent",8,12,1,629
"subj005","ink_naming","congruent",8,13,1,822
"subj005","ink_naming","congruent",8,14,1,876
"subj005","word_reading","incongruent",8,15,1,795
"subj005","ink_naming","congruent",8,16,1,968
"subj005","ink_naming","congruent",8,17,1,936
"subj005","word_reading","congruent",8,18,1,509
"subj005","ink_naming","incongruent",8,19,1,866
"subj005","word_reading","incongruent",8,20,1,833
"subj005","ink_naming","incongruent",8,21,1,1136
"subj005","ink_naming","congruent",8,22,1,1028
"subj005","word_reading","incongruent",8,23,1,301
"subj005","ink_naming","congruent",8,24,1,1032
"subj005","ink_naming","incongruent",8,25,1,1059
"subj005","ink_naming","incongruent",8,26,1,1218
"subj005","word_reading","congruent",8,27,1,678
"subj005","word_reading","incongruent",8,28,1,858
"subj005","ink_naming","congruent",8,29,0,917
"subj005","ink_naming","congruent",8,30,1,1142
"subj005","ink_naming","incongruent",8,31,1,1176
"subj005","word_reading","congruent",8,32,1,852
"subj005","ink_naming","incongruent",8,33,0,1091
"subj005","ink_naming","congruent",8,34,1,970
"subj005","ink_naming","incongruent",8,36,1,1243
"subj005","ink_naming","incongruent",8,37,1,1179
"subj005","ink_naming","congruent",8,38,1,873
"subj005","ink_naming","congruent",8,39,1,721
"subj005","ink_naming","incongruent",8,40,1,1185
"subj005","word_reading","incongruent",8,41,1,624
"subj005","word_reading","congruent",8,42,1,711
"subj005","ink_naming","congruent",8,43,1,1005
"subj005","word_reading","congruent",8,44,1,665
"subj005","ink_naming","congruent",8,45,1,1004
"subj005","ink_naming","incongruent",8,46,1,1291
"subj005","ink_naming","congruent",8,47,1,857
"subj005","ink_naming","incongruent",8,48,1,1050
"subj005","ink_naming","incongruent",8,49,1,1004
"subj005","ink_naming","congruent",8,50,1,1029
"subj006","ink_naming","incongruent",1,1,1,1386
"subj006","ink_naming","incongruent",1,2,1,1211
"subj006","ink_naming","incongruent",1,3,1,1153
"subj006","ink_naming","congruent",1,4,1,941
"subj006","word_reading","congruent",1,5,1,665
"subj006","ink_naming","incongruent",1,6,1,980
"subj006","ink_naming","incongruent",1,7,1,1179
"subj006","ink_naming","incongruent",1,8,1,1218
"subj006","word_reading","incongruent",1,9,1,810
"subj006","word_reading","incongruent",1,10,1,668
"subj006","ink_naming","incongruent",1,11,1,1133
"subj006","ink_naming","incongruent",1,12,1,1058
"subj006","word_reading","incongruent",1,13,1,800
"subj006","word_reading","congruent",1,14,0,570
"subj006","word_reading","congruent",1,15,1,711
"subj006","ink_naming","incongruent",1,16,1,1064
"subj006","word_reading","congruent",1,17,1,652
"subj006","word_reading","congruent",1,18,1,766
"subj006","word_reading","incongruent",1,19,0,657
"subj006","ink_naming","congruent",1,20,1,934
"subj006","ink_naming","congruent",1,21,1,950
"subj006","word_reading","congruent",1,22,1,692
"subj006","ink_naming","incongruent",1,23,1,1208
"subj006","word_reading","incongruent",1,24,1,789
"subj006","ink_naming","congruent",1,25,1,1104
"subj006","word_reading","congruent",1,26,1,724
"subj006","word_reading","incongruent",1,27,1,793
"subj006","ink_naming","congruent",1,29,1,873
"subj006","word_reading","incongruent",1,30,1,653
"subj006","word_reading","incongruent",1,31,1,604
"subj006","ink_naming","incongruent",1,32,1,1135
"subj006","ink_naming","incongruent",1,33,1,1139
"subj006","word_reading","incongruent",1,34,1,670
"subj006","ink_naming","congruent",1,35,1,891
"subj006","ink_naming","congruent",1,36,1,844
"subj006","word_reading","incongruent",1,37,1,603
"subj006","word_reading","congruent",1,38,0,700
"subj006","word_reading","incongruent",1,40,1,801
"subj006","word_reading","incongruent",1,41,1,835
"subj006","ink_naming","congruent",1,43,1,980
"subj006","word_reading","congruent",1,44,1,743
"subj006","word_reading","incongruent",1,45,1,751
"subj006","ink_naming","incongruent",1,46,1,1077
"subj006","word_reading","congruent",1,47,1,577
"subj006","ink_naming","incongruent",1,48,1,1235
"subj006","word_reading","incongruent",1,49,1,820
"subj006","word_reading","incongruent",1,50,1,510
"subj006","ink_naming","incongruent",2,1,1,1159
"subj006","word_reading","incongruent",2,2,1,607
"subj006","word_reading","incongruent",2,3,1,846
"subj006","word_reading","incongruent",2,4,1,786
"subj006","word_reading","congruent",2,5,1,643
"subj006","word_reading","congruent",2,6,1,811
"subj006","ink_naming","congruent",2,7,1,1140
"subj006","ink_naming","congruent",2,8,1,997
"subj006","word_reading","congruent",2,9,1,817
"subj006","ink_naming","congruent",2,11,1,1041
"subj006","word_reading","congruent",2,12,1,602
"subj006","ink_naming","congruent",2,13,1,960
"subj006","word_reading","congruent",2,14,1,679
"subj006","word_reading","congruent",2,15,1,668
"subj006","word_reading","congruent",2,16,1,835
"subj006","word_reading","incongruent",2,17,1,670
"subj006","word_reading","incongruent",2,18,1,799
"subj006","word_reading","congruent",2,19,1,774
"subj006","word_reading","congruent",2,20,1,605
"subj006","word_reading","congruent",2,21,1,657
"subj006","ink_naming","congruent",2,23,1,1081
"subj006","ink_naming","incongruent",2,24,1,1108
"subj006","ink_naming","incongruent",2,25,1,1077
"subj006","ink_naming","congruent",2,28,1,957
"subj006","word_reading","incongruent",2,29,1,810
"subj006","ink_naming","incongruent",2,30,1,1099
"subj006","word_reading","incongruent",2,31,1,702
"subj006","ink_naming","congruent",2,32,1,870
"subj006","word_reading","incongruent",2,33,1,879
"subj006","word_reading","congruent",2,34,1,576
"subj006","word_reading","incongruent",2,35,1,846
"subj006","ink_naming","congruent",2,36,1,994
"subj006","ink_naming","congruent",2,37,1,974
"subj006","word_reading","incongruent",2,38,1,709
"subj006","ink_naming","congruent",2,39,1,1014
"subj006","word_reading","incongruent",2,40,1,672
"subj006","word_reading","incongruent",2,41,1,721
"subj006","word_reading","congruent",2,42,1,785
"subj006","ink_naming","congruent",2,43,1,934
"subj006","word_reading","incongruent",2,44,1,807
"subj006","ink_naming","congruent",2,45,1,1212
"subj006","word_reading","incongruent",2,46,1,623
"subj006","ink_naming","incongruent",2,47,1,1206
"subj006","ink_naming","congruent",2,49,1,993
"subj006","ink_naming","incongruent",2,50,1,1198
"subj006","word_reading","congruent",3,1,1,611
"subj006","ink_naming","congruent",3,2,1,816
"subj006","ink_naming","incongruent",3,3,1,1104
"subj006","ink_naming","incongruent",3,4,1,971
"subj006","ink_naming","congruent",3,5,1,832
"subj006","ink_naming","incongruent",3,7,1,1045
"subj006","word_reading","congruent",3,8,1,643
"subj006","ink_naming","incongruent",3,9,1,1186
"subj006","ink_naming","congruent",3,10,1,1073
"subj006","ink_naming","congruent",3,11,1,1072
"subj006","ink_naming","congruent",3,12,1,924
"subj006","ink_naming","incongruent",3,13,1,1308
"subj006","ink_naming","incongruent",3,14,1,1226
"subj006","word_reading","congruent",3,15,1,665
"subj006","word_reading","incongruent",3,16,1,740
"subj006","word_reading","incongruent",3,17,1,762
"subj006","ink_naming","incongruent",3,19,1,1238
"subj006","ink_naming","congruent",3,20,1,1011
"subj006","ink_naming","incongruent",3,21,1,1131
"subj006","ink_naming","congruent",3,22,1,1014
"subj006","word_reading","incongruent",3,23,1,679
"subj006","word_reading","congruent",3,24,1,495
"subj006","ink_naming","congruent",3,25,0,1011
"subj006","word_reading","incongruent",3,26,1,625
"subj006","ink_naming","incongruent",3,27,1,1304
"subj006","word_reading","congruent",3,28,1,853
"subj006","ink_naming","congruent",3,29,1,1089
"subj006","ink_naming","congruent",3,30,1,972
"subj006","word_reading","incongruent",3,31,1,400
"subj006","ink_naming","incongruent",3,32,1,1145
"subj006","word_reading","incongruent",3,33,1,663
"subj006","ink_naming","congruent",3,35,1,1042
"subj006","ink_naming","congruent",3,36,1,1168
"subj006","ink_naming","congruent",3,37,1,963
"subj006","word_reading","incongruent",3,38,1,560
"subj006","word_reading","congruent",3,39,1,673
"subj006","word_reading","incongruent",3,40,1,701
"subj006","word_reading","incongruent",3,41,1,648
"subj006","ink_naming","incongruent",3,42,1,1273
"subj006","ink_naming","congruent",3,43,1,1053
"subj006","ink_naming","congruent",3,44,1,842
"subj006","word_reading","incongruent",3,45,1,840
"subj006","word_reading","congruent",3,46,0,595
"subj006","word_reading","congruent",3,48,1,850
"subj006","word_reading","incongruent",3,50,1,641
"subj006","ink_naming","incongruent",4,1,1,958
"subj006","word_reading","congruent",4,2,1,696
"subj006","word_reading","incongruent",4,3,1,619
"subj006","word_reading","congruent",4,4,1,737
"subj006","ink_naming","incongruent",4,5,1,1109
"subj006","word_reading","congruent",4,6,1,674
"subj006","ink_naming","congruent",4,7,1,1000
"subj006","word_reading","incongruent",4,8,1,583
"subj006","word_reading","incongruent",4,10,1,728
"subj006","word_reading","incongruent",4,11,1,641
"subj006","ink_naming","congruent",4,12,1,994
"subj006","ink_naming","incongruent",4,13,1,1180
"subj006","word_reading","incongruent",4,15,1,557
"subj006","ink_naming","incongruent",4,16,1,1303
"subj006","ink_naming","congruent",4,18,1,1105
"subj006","ink_naming","congruent",4,19,1,1181
"subj006","word_reading","incongruent",4,20,1,637
"subj006","word_reading","incongruent",4,21,1,758
"subj006","word_reading","congruent",4,22,1,820
"subj006","word_reading","congruent",4,23,1,836
"subj006","word_reading","incongruent",4,24,1,675
"subj006","ink_naming","congruent",4,25,1,1087
"subj006","ink_naming","congruent",4,26,1,896
"subj006","ink_naming","incongruent",4,27,1,955
"subj006","word_reading","incongruent",4,28,1,674
"subj006","word_reading","congruent",4,29,1,581
"subj006","word_reading","incongruent",4,31,1,704
"subj006","word_reading","congruent",4,32,1,700
"subj006","ink_naming","congruent",4,33,1,1159
"subj006","ink_naming","incongruent",4,34,1,966
"subj006","ink_naming","incongruent",4,35,1,1115
"subj006","ink_naming","congruent",4,36,1,976
"subj006","ink_naming","congruent",4,38,0,999
"subj006","ink_naming","congruent",4,39,1,1118
"subj006","ink_naming","congruent",4,40,1,1120
"subj006","word_reading","incongruent",4,41,1,836
"subj006","ink_naming","congruent",4,42,1,1159
"subj006","word_reading","incongruent",4,44,1,637
"subj006","ink_naming","congruent",4,46,1,861
"subj006","word_reading","congruent",4,47,1,710
"subj006","word_reading","congruent",4,48,1,709
"subj006","word_reading","congruent",4,49,1,857
"subj006","word_reading","congruent",4,50,1,543
"subj006","word_reading","incongruent",5,1,1,878
"subj006","word_reading","incongruent",5,2,1,754
"subj006","ink_naming","incongruent",5,3,1,1258
"subj006","ink_naming","congruent",5,4,1,1155
"subj006","ink_naming","incongruent",5,5,1,1228
"subj006","word_reading","congruent",5,6,1,713
"subj006","word_reading","congruent",5,7,0,723
"subj006","word_reading","congruent",5,8,1,649
"subj006","ink_naming","incongruent",5,9,1,1147
"subj006","word_reading","incongruent",5,11,1,746
"subj006","word_reading","congruent",5,12,1,703
"subj006","ink_naming","congruent",5,13,0,907
"subj006","ink_naming","incongruent",5,14,1,1168
"subj006","word_reading","congruent",5,15,1,524
"subj006","ink_naming","incongruent",5,17,1,1106
